File: datas/AB044 NR37 14-02-2025 VARTA pulse discharge 120mA dts= 10s for 30min rest (loop 720)_01_PEIS_C02_.mpt.txt
freq/Hz	Re(Z)/Ohm	-Im(Z)/Ohm	|Z|/Ohm	Phase(Z)/deg	time/s	<Ewe>/V	<I>/mA	Cs/ F	Cp/ F	cycle number	I Range	|Ewe|/V	|I|/A	Ns	(Q-Qo)/mA.h	Analog IN 1/V	Analog IN 2/V	THD Ewe/%	NSD Ewe/%	NSR Ewe/%	THD I/%	NSD I/%	NSR I/%	|Ewe h2|/V	|Ewe h3|/V	|Ewe h4|/V	|Ewe h5|/V	|Ewe h6|/V	|Ewe h7|/V	|I h2|/A	|I h3|/A	|I h4|/A	|I h5|/A	|I h6|/A	|I h7|/A	Re(Y)/Ohm-1	Im(Y)/Ohm-1	|Y|/Ohm-1	Phase(Y)/deg	Re(C)/nF	Im(C)/nF	|C|/nF	Phase(C)/deg	Re(M)	Im(M)	|M|	Phase(M)/deg	Re(Permittivity)	Im(Permittivity)	|Permittivity|	Phase(Permittivity)/deg	Re(Resistivity)/Ohm.cm	Im(Resistivity)/Ohm.cm	|Resistivity|/Ohm.cm	Phase(Resistivity)/deg	Re(Conductivity)/mS/cm	Im(Conductivity)/mS/cm	|Conductivity|/mS/cm	Phase(Conductivity)/deg	Tan(Delta)	Loss Angle(Delta)/deg	dq/mA.h
1,0000186E+006	1,8998955E+000	2,7826399E-001	1,9201651E+000	-8,3324556E+000	3,062492492113961E+000	3,2459970E+000	2,8506717E-001	5,7194602E-001	1,2011353E-002	1,000000000000000E+000	37	1,2766681E-002	6,6487412E-003	0	8,920596714002183E-005	-4,6431704E-004	-4,6521865E-004	-1	-1	-1	-1	-1	-1	0	0	0	0	0	0	0	0	0	0	0	0	5,1529104E-001	7,5470962E-002	5,2078855E-001	8,3324556E+000	1,2011358E+001	8,2009598E+001	8,2884537E+001	-8,1667542E+001	0,0000000E+000	0,0000000E+000	0,0000000E+000	8,1667542E+001	0,0000000E+000	0,0000000E+000	0,0000000E+000	-8,1667542E+001	0,0000000E+000	0,0000000E+000	0,0000000E+000	-8,3324556E+000	0,0000000E+000	0,0000000E+000	0,0000000E+000	8,3324556E+000	6,8276730E+000	8,3324556E+000	8,920596714002183E-005
6,2729181E+005	1,9739577E+000	3,4094477E-001	2,0031855E+000	-9,7995224E+000	4,743491051922319E+000	3,2459786E+000	2,6467550E-001	7,4416029E-001	2,1557191E-002	1,000000000000000E+000	37	1,4943807E-002	7,4600214E-003	0	2,273168373188884E-004	-5,3298433E-004	-7,7456731E-004	-1	-1	-1	-1	-1	-1	0	0	0	0	0	0	0	0	0	0	0	0	4,9192113E-001	8,4965311E-002	4,9920487E-001	9,7995224E+000	2,1557192E+001	1,2480903E+002	1,2665704E+002	-8,0200478E+001	0,0000000E+000	0,0000000E+000	0,0000000E+000	8,0200478E+001	0,0000000E+000	0,0000000E+000	0,0000000E+000	-8,0200478E+001	0,0000000E+000	0,0000000E+000	0,0000000E+000	-9,7995224E+000	0,0000000E+000	0,0000000E+000	0,0000000E+000	9,7995224E+000	5,7896700E+000	9,7995224E+000	7,889555858968137E-005
3,9349206E+005	2,0420969E+000	4,2638859E-001	2,0861368E+000	-1,1793879E+001	6,451485026424052E+000	3,2459829E+000	2,6087302E-001	9,4859010E-001	3,9628182E-002	1,000000000000000E+000	37	1,4945653E-002	7,1642725E-003	0	3,299719041413886E-004	-6,0165196E-004	-7,0582319E-004	-1	-1	-1	-1	-1	-1	0	0	0	0	0	0	0	0	0	0	0	0	4,6923539E-001	9,7976059E-002	4,7935495E-001	1,1793879E+001	3,9628174E+001	1,8979070E+002	1,9388373E+002	-7,8206123E+001	0,0000000E+000	0,0000000E+000	0,0000000E+000	7,8206123E+001	0,0000000E+000	0,0000000E+000	0,0000000E+000	-7,8206123E+001	0,0000000E+000	0,0000000E+000	0,0000000E+000	-1,1793879E+001	0,0000000E+000	0,0000000E+000	0,0000000E+000	1,1793879E+001	4,7892857E+000	1,1793879E+001	5,506162485555333E-005
2,4683603E+005	2,1295452E+000	5,5656016E-001	2,2010729E+000	-1,4646732E+001	8,159476120868931E+000	3,2459641E+000	2,5295120E-001	1,1585091E+000	7,4072130E-002	1,000000000000000E+000	37	1,4868260E-002	6,7550060E-003	0	4,496162071990289E-004	-5,3298433E-004	-6,0270686E-004	-1	-1	-1	-1	-1	-1	0	0	0	0	0	0	0	0	0	0	0	0	4,3955985E-001	1,1487969E-001	4,5432389E-001	1,4646732E+001	7,4072098E+001	2,8341937E+002	2,9293893E+002	-7,5353271E+001	0,0000000E+000	0,0000000E+000	0,0000000E+000	7,5353271E+001	0,0000000E+000	0,0000000E+000	0,0000000E+000	-7,5353271E+001	0,0000000E+000	0,0000000E+000	0,0000000E+000	-1,4646732E+001	0,0000000E+000	0,0000000E+000	0,0000000E+000	1,4646732E+001	3,8262625E+000	1,4646732E+001	6,006103631231880E-005
1,5483967E+005	2,2413685E+000	7,4518150E-001	2,3619967E+000	-1,8390274E+001	9,867477508640150E+000	3,2459776E+000	2,6083574E-001	1,3793542E+000	1,3729079E-001	1,000000000000000E+000	37	1,4889011E-002	6,3035698E-003	0	5,575616259065250E-004	-4,6431704E-004	-6,0270686E-004	-1	-1	-1	-1	-1	-1	0	0	0	0	0	0	0	0	0	0	0	0	4,0174893E-001	1,3356833E-001	4,2337063E-001	1,8390274E+001	1,3729079E+002	4,1294537E+002	4,3516968E+002	-7,1609726E+001	0,0000000E+000	0,0000000E+000	0,0000000E+000	7,1609726E+001	0,0000000E+000	0,0000000E+000	0,0000000E+000	-7,1609726E+001	0,0000000E+000	0,0000000E+000	0,0000000E+000	-1,8390274E+001	0,0000000E+000	0,0000000E+000	0,0000000E+000	1,8390274E+001	3,0078156E+000	1,8390274E+001	6,548228060761988E-005
9,7127375E+004	2,3934016E+000	1,0091499E+000	2,5974517E+000	-2,2862152E+001	1,157548174975091E+001	3,2459841E+000	2,6247600E-001	1,6237634E+000	2,4509768E-001	1,000000000000000E+000	37	1,4742844E-002	5,6758877E-003	0	6,700502935993329E-004	-6,0165196E-004	-4,6521865E-004	1,1631257E-001	5,4743826E-002	1,7613436E+000	2,1702521E-001	1,0701843E-001	2,9822323E+000	6,3619559E-006	1,1126302E-005	6,4146379E-006	5,7654133E-006	5,0787635E-006	4,2093147E-006	5,1826614E-006	6,7565811E-006	2,3922219E-006	5,9504396E-006	3,0083747E-006	2,6501293E-006	3,5474855E-001	1,4957559E-001	3,8499272E-001	2,2862152E+001	2,4509767E+002	5,8129840E+002	6,3085712E+002	-6,7137848E+001	0,0000000E+000	0,0000000E+000	0,0000000E+000	6,7137848E+001	0,0000000E+000	0,0000000E+000	0,0000000E+000	-6,7137848E+001	0,0000000E+000	0,0000000E+000	0,0000000E+000	-2,2862152E+001	0,0000000E+000	0,0000000E+000	0,0000000E+000	2,2862152E+001	2,3717008E+000	2,2862152E+001	5,961781288629081E-005
6,0922652E+004	2,6103652E+000	1,3761134E+000	2,9508803E+000	-2,7796978E+001	1,328347636424587E+001	3,2459838E+000	2,4775077E-001	1,8983972E+000	4,1285008E-001	1,000000000000000E+000	37	1,4573399E-002	4,9386616E-003	0	8,058613673760814E-004	-5,3298433E-004	-7,0582319E-004	8,5997254E-002	4,1403659E-002	1,7983288E+000	2,1548219E-001	7,0633896E-002	3,4807670E+000	3,9181409E-006	4,9167497E-006	3,2765320E-006	5,5317578E-006	7,3009410E-006	3,2915034E-006	8,6160717E-006	1,8627510E-006	3,6135709E-006	2,6562254E-006	2,6415189E-006	1,6944845E-006	2,9977685E-001	1,5803421E-001	3,3888194E-001	2,7796978E+001	4,1285010E+002	7,8314001E+002	8,8529852E+002	-6,2203022E+001	0,0000000E+000	0,0000000E+000	0,0000000E+000	6,2203022E+001	0,0000000E+000	0,0000000E+000	0,0000000E+000	-6,2203022E+001	0,0000000E+000	0,0000000E+000	0,0000000E+000	-2,7796978E+001	0,0000000E+000	0,0000000E+000	0,0000000E+000	2,7796978E+001	1,8969114E+000	2,7796978E+001	6,356350887020941E-005
3,8218156E+004	2,9196951E+000	1,8855115E+000	3,4755969E+000	-3,2853992E+001	1,485447745220154E+001	3,2459912E+000	2,5166506E-001	2,2086210E+000	6,5001112E-001	1,000000000000000E+000	37	1,4914653E-002	4,2912494E-003	0	9,161465601012978E-004	-1,0136559E-003	-6,7145098E-004	1,2101962E-001	3,9507300E-002	1,7267734E+000	2,7430674E-001	1,2144151E-001	4,0309367E+000	3,8518783E-006	1,0310331E-005	4,6337000E-006	3,4842803E-006	8,5411157E-006	6,9249218E-006	6,5174499E-006	5,2481282E-006	3,9964643E-006	3,9770030E-006	3,3466131E-006	3,3546612E-006	2,4170114E-001	1,5608831E-001	2,8772035E-001	3,2853992E+001	6,5001117E+002	1,0065356E+003	1,1981771E+003	-5,7146008E+001	0,0000000E+000	0,0000000E+000	0,0000000E+000	5,7146008E+001	0,0000000E+000	0,0000000E+000	0,0000000E+000	-5,7146008E+001	0,0000000E+000	0,0000000E+000	0,0000000E+000	-3,2853992E+001	0,0000000E+000	0,0000000E+000	0,0000000E+000	3,2853992E+001	1,5484897E+000	3,2853992E+001	5,399236244999991E-005
2,3975656E+004	3,3909922E+000	2,5686750E+000	4,2540474E+000	-3,7143913E+001	1,628849829363753E+001	3,2459869E+000	2,5880393E-001	2,5842855E+000	9,4222403E-001	1,000000000000000E+000	37	1,4575329E-002	3,4262263E-003	0	1,015905144205537E-003	-3,2698250E-004	-4,6521865E-004	1,2816958E-001	6,3907459E-002	1,7735360E+000	3,1938607E-001	1,4077879E-001	5,0971694E+000	2,8533166E-006	9,8218225E-006	1,1988179E-005	4,3566356E-006	6,3748257E-006	3,9632182E-006	6,4626538E-006	3,0355409E-006	3,6744866E-006	5,5754335E-006	2,8381176E-006	2,3324772E-006	1,8737952E-001	1,4193991E-001	2,3507026E-001	3,7143913E+001	9,4222394E+002	1,2438607E+003	1,5604408E+003	-5,2856087E+001	0,0000000E+000	0,0000000E+000	0,0000000E+000	5,2856087E+001	0,0000000E+000	0,0000000E+000	0,0000000E+000	-5,2856087E+001	0,0000000E+000	0,0000000E+000	0,0000000E+000	-3,7143913E+001	0,0000000E+000	0,0000000E+000	0,0000000E+000	3,7143913E+001	1,3201329E+000	3,7143913E+001	5,188180773553898E-005
1,5040457E+004	4,1070561E+000	3,4462085E+000	5,3613677E+000	-3,9999828E+001	1,788849162295810E+001	3,2459764E+000	3,6650129E-002	3,0705597E+000	1,2686723E+000	1,000000000000000E+000	38	1,4925387E-002	2,7838766E-003	0	1,040395032512541E-003	-3,6131596E-004	-5,3396280E-004	1,2125842E-001	4,9628675E-002	1,7203242E+000	1,2888648E-001	5,4824647E-002	7,6164556E-001	4,5362062E-006	1,0221758E-005	1,0625518E-005	4,5259235E-006	4,0788873E-006	6,6427451E-006	9,7530472E-007	2,5440318E-006	1,3770664E-006	1,5796537E-006	2,4103062E-007	7,9796752E-007	1,4288263E-001	1,1989204E-001	1,8651956E-001	3,9999828E+001	1,2686724E+003	1,5119540E+003	1,9737108E+003	-5,0000172E+001	0,0000000E+000	0,0000000E+000	0,0000000E+000	5,0000172E+001	0,0000000E+000	0,0000000E+000	0,0000000E+000	-5,0000172E+001	0,0000000E+000	0,0000000E+000	0,0000000E+000	-3,9999828E+001	0,0000000E+000	0,0000000E+000	0,0000000E+000	3,9999828E+001	1,1917608E+000	3,9999828E+001	8,615486895717332E-006
9,4374268E+003	5,1382651E+000	4,5003200E+000	6,8304205E+000	-4,1213310E+001	1,931963225099389E+001	3,2459691E+000	3,7045415E-002	3,7473404E+000	1,6267284E+000	1,000000000000000E+000	38	1,4968323E-002	2,1914204E-003	0	1,053193831423867E-003	-7,0465269E-004	-5,6833500E-004	1,3961266E-001	5,5483744E-002	1,6831959E+000	2,1815509E-001	2,7287437E-002	9,7489989E-001	3,6403360E-006	1,5028058E-005	8,7069429E-006	4,9052005E-006	3,2093328E-006	7,8316862E-006	1,4213261E-006	3,5939054E-006	7,4497751E-007	2,5482564E-006	6,6196361E-007	4,4720716E-007	1,1013404E-001	9,6460268E-002	1,4640386E-001	4,1213310E+001	1,6267284E+003	1,8573260E+003	2,4689888E+003	-4,8786690E+001	0,0000000E+000	0,0000000E+000	0,0000000E+000	4,8786690E+001	0,0000000E+000	0,0000000E+000	0,0000000E+000	-4,8786690E+001	0,0000000E+000	0,0000000E+000	0,0000000E+000	-4,1213310E+001	0,0000000E+000	0,0000000E+000	0,0000000E+000	4,1213310E+001	1,1417555E+000	4,1213310E+001	5,722023345180712E-006
5,9169902E+003	6,6024666E+000	5,6935873E+000	8,7183428E+000	-4,0772591E+001	2,078929773406708E+001	3,2459662E+000	3,8371131E-002	4,7242546E+000	2,0148251E+000	1,000000000000000E+000	38	1,4348644E-002	1,6457994E-003	0	1,068316720968300E-003	-4,9865089E-004	-7,0582319E-004	1,6247445E-001	6,5325089E-002	1,7332056E+000	2,8387645E-001	6,0044747E-002	1,2959615E+000	5,7206794E-006	1,5857477E-005	5,3999652E-006	1,3450024E-005	2,1760791E-006	3,4891161E-006	8,6826725E-007	3,2480998E-006	1,5156191E-006	2,6478306E-006	9,2900359E-007	4,6359310E-007	8,6863704E-002	7,4906252E-002	1,1470070E-001	4,0772591E+001	2,0148252E+003	2,3364561E+003	3,0852144E+003	-4,9227409E+001	0,0000000E+000	0,0000000E+000	0,0000000E+000	4,9227409E+001	0,0000000E+000	0,0000000E+000	0,0000000E+000	-4,9227409E+001	0,0000000E+000	0,0000000E+000	0,0000000E+000	-4,0772591E+001	0,0000000E+000	0,0000000E+000	0,0000000E+000	4,0772591E+001	1,1596321E+000	4,0772591E+001	8,886571406018255E-006
3,7111863E+003	8,5996790E+000	6,8990607E+000	1,1025041E+001	-3,8738201E+001	2,229769332577416E+001	3,2459636E+000	3,7504077E-002	6,2160916E+000	2,4340918E+000	1,000000000000000E+000	38	1,4027439E-002	1,2723254E-003	0	1,085446967438500E-003	-4,9865089E-004	-4,9959053E-004	1,6189872E-001	4,1014209E-002	1,8314919E+000	2,7365118E-001	5,7609603E-002	1,6727432E+000	6,0321154E-006	1,4522589E-005	4,4128437E-006	1,3967004E-005	3,3033577E-006	5,4400734E-006	3,8792390E-007	2,2237768E-006	5,8798128E-007	2,3699631E-006	5,8458863E-007	7,1603102E-007	7,0749253E-002	5,6758329E-002	9,0702616E-002	3,8738201E+001	2,4340920E+003	3,0340955E+003	3,8897993E+003	-5,1261799E+001	0,0000000E+000	0,0000000E+000	0,0000000E+000	5,1261799E+001	0,0000000E+000	0,0000000E+000	0,0000000E+000	-5,1261799E+001	0,0000000E+000	0,0000000E+000	0,0000000E+000	-3,8738201E+001	0,0000000E+000	0,0000000E+000	0,0000000E+000	3,8738201E+001	1,2465000E+000	3,8738201E+001	8,831718236650870E-006
2,3292527E+003	1,1200248E+001	7,8918777E+000	1,3701361E+001	-3,5169151E+001	2,379581459691690E+001	3,2459731E+000	3,7636455E-002	8,6581116E+000	2,8724766E+000	1,000000000000000E+000	38	1,3866869E-002	1,0120797E-003	0	1,101620429358626E-003	-5,6731811E-004	-6,3707912E-004	1,4981061E-001	9,1121055E-002	1,8185861E+000	3,2914829E-001	8,8803016E-002	2,1260746E+000	4,1865783E-006	1,1830281E-005	6,0400403E-006	1,1840395E-005	3,1906902E-006	4,9442883E-006	2,8009444E-007	1,9344118E-006	8,7809531E-007	2,3456814E-006	6,0721021E-007	5,7921847E-007	5,9662335E-002	4,2039059E-002	7,2985455E-002	3,5169151E+001	2,8724766E+003	4,0766531E+003	4,9870054E+003	-5,4830849E+001	0,0000000E+000	0,0000000E+000	0,0000000E+000	5,4830849E+001	0,0000000E+000	0,0000000E+000	0,0000000E+000	-5,4830849E+001	0,0000000E+000	0,0000000E+000	0,0000000E+000	-3,5169151E+001	0,0000000E+000	0,0000000E+000	0,0000000E+000	3,5169151E+001	1,4192120E+000	3,5169151E+001	7,853038981291659E-006
1,4604702E+003	1,4257812E+001	8,3424511E+000	1,6519131E+001	-3,0332518E+001	2,529371384140541E+001	3,2459605E+000	3,6802974E-002	1,3062724E+001	3,3315527E+000	1,000000000000000E+000	38	1,3794927E-002	8,3508797E-004	0	1,116882450419924E-003	-6,3598540E-004	-7,7456731E-004	1,6572322E-001	8,3272092E-002	1,8213620E+000	2,6471192E-001	1,3020766E-001	2,5678341E+000	5,8967794E-006	1,5411899E-005	4,8974812E-006	1,0044292E-005	7,4857116E-006	4,8719235E-006	3,7732630E-007	1,1952405E-006	3,8383754E-007	1,6368887E-006	5,3288750E-007	3,8664490E-007	5,2249063E-002	3,0571679E-002	6,0535874E-002	3,0332518E+001	3,3315532E+003	5,6938486E+003	6,5969053E+003	-5,9667480E+001	0,0000000E+000	0,0000000E+000	0,0000000E+000	5,9667480E+001	0,0000000E+000	0,0000000E+000	0,0000000E+000	-5,9667480E+001	0,0000000E+000	0,0000000E+000	0,0000000E+000	-3,0332518E+001	0,0000000E+000	0,0000000E+000	0,0000000E+000	3,0332518E+001	1,7090675E+000	3,0332518E+001	7,199032045519284E-006
9,1646613E+002	1,7379135E+001	8,0392656E+000	1,9148476E+001	-2,4824387E+001	2,678946001906297E+001	3,2459655E+000	3,7973940E-002	2,1601669E+001	3,8076031E+000	1,000000000000000E+000	38	1,3763564E-002	7,1878120E-004	0	1,130935287208807E-003	-3,9564978E-004	-6,3707912E-004	1,8764451E-001	4,0788986E-002	1,8011858E+000	3,2032582E-001	1,5374590E-001	2,9926512E+000	3,2597748E-006	1,9080215E-005	4,8238035E-006	1,5091186E-005	3,8990297E-006	3,6000285E-006	7,3368813E-007	1,4105591E-006	7,1046526E-007	1,3358709E-006	3,2064708E-007	3,6651591E-007	4,7397967E-002	2,1925421E-002	5,2223478E-002	2,4824387E+001	3,8076033E+003	8,2312051E+003	9,0692109E+003	-6,5175613E+001	0,0000000E+000	0,0000000E+000	0,0000000E+000	6,5175613E+001	0,0000000E+000	0,0000000E+000	0,0000000E+000	-6,5175613E+001	0,0000000E+000	0,0000000E+000	0,0000000E+000	-2,4824387E+001	0,0000000E+000	0,0000000E+000	0,0000000E+000	2,4824387E+001	2,1617813E+000	2,4824387E+001	7,134063820749253E-006
5,7481604E+002	2,0079168E+001	7,1170855E+000	2,1303190E+001	-1,9516933E+001	2,828681086355937E+001	3,2459631E+000	3,5820324E-002	3,8903534E+001	4,3421431E+000	1,000000000000000E+000	38	1,3747834E-002	6,4534153E-004	0	1,145675040266140E-003	-7,7332027E-004	-7,7456731E-004	1,3689640E-001	4,0427234E-002	1,8514463E+000	3,0404860E-001	1,0750363E-001	3,3789101E+000	4,5695288E-006	1,2164075E-005	6,5663025E-006	9,8918044E-006	3,0618914E-006	4,6206405E-006	1,0719078E-006	6,1763370E-007	8,1578827E-007	9,0260596E-007	4,3432811E-007	6,0794815E-007	4,4244207E-002	1,5682412E-002	4,6941325E-002	1,9516933E+001	4,3421440E+003	1,2250327E+004	1,2997104E+004	-7,0483063E+001	0,0000000E+000	0,0000000E+000	0,0000000E+000	7,0483063E+001	0,0000000E+000	0,0000000E+000	0,0000000E+000	-7,0483063E+001	0,0000000E+000	0,0000000E+000	0,0000000E+000	-1,9516933E+001	0,0000000E+000	0,0000000E+000	0,0000000E+000	1,9516933E+001	2,8212628E+000	1,9516933E+001	7,200450550163325E-006
3,6057681E+002	2,2147583E+001	5,9397039E+000	2,2930231E+001	-1,5012737E+001	2,978244264124078E+001	3,2459264E+000	3,3664841E-002	7,4311752E+001	4,9862065E+000	1,000000000000000E+000	38	1,3742644E-002	5,9932430E-004	0	1,160613108338290E-003	-7,0465269E-004	-6,7145098E-004	1,3879971E-001	5,0129995E-002	1,8124824E+000	2,1441051E-001	1,3616590E-001	3,5364850E+000	7,6944707E-006	1,0457145E-005	5,9020117E-006	9,4967299E-006	4,1078015E-006	5,6966410E-006	6,5774225E-007	4,3823917E-007	4,1672914E-007	6,9001317E-007	2,6442285E-007	4,3850963E-007	4,2122047E-002	1,1296606E-002	4,3610550E-002	1,5012737E+001	4,9862080E+003	1,8592242E+004	1,9249254E+004	-7,4987259E+001	0,0000000E+000	0,0000000E+000	0,0000000E+000	7,4987259E+001	0,0000000E+000	0,0000000E+000	0,0000000E+000	-7,4987259E+001	0,0000000E+000	0,0000000E+000	0,0000000E+000	-1,5012737E+001	0,0000000E+000	0,0000000E+000	0,0000000E+000	1,5012737E+001	3,7287352E+000	1,5012737E+001	7,411525307520709E-006
2,2623093E+002	2,3626940E+001	4,8301635E+000	2,4115612E+001	-1,1554033E+001	3,127764927230237E+001	3,2459531E+000	3,4874968E-002	1,4564861E+002	5,8429670E+000	1,000000000000000E+000	38	1,3739199E-002	5,6972221E-004	0	1,175245497139675E-003	-5,6731811E-004	-4,9959053E-004	1,2857920E-001	4,9121931E-002	1,8856376E+000	2,9347953E-001	7,4747361E-002	3,7757127E+000	4,8978141E-006	9,6643962E-006	5,6563258E-006	8,4124194E-006	6,1448213E-006	6,3963248E-006	9,2978178E-007	3,9136734E-007	5,1245240E-007	7,8436079E-007	3,4865585E-007	6,9136871E-007	4,0626638E-002	8,3054900E-003	4,1466914E-002	1,1554033E+001	5,8429658E+003	2,8581107E+004	2,9172246E+004	-7,8445969E+001	0,0000000E+000	0,0000000E+000	0,0000000E+000	7,8445969E+001	0,0000000E+000	0,0000000E+000	0,0000000E+000	-7,8445969E+001	0,0000000E+000	0,0000000E+000	0,0000000E+000	-1,1554033E+001	0,0000000E+000	0,0000000E+000	0,0000000E+000	1,1554033E+001	4,8915405E+000	1,1554033E+001	7,457728903617795E-006
1,4186128E+002	2,4750952E+001	3,9779689E+000	2,5068583E+001	-9,1304865E+000	3,302214250180987E+001	3,2459567E+000	1,5750756E-002	2,8202972E+002	7,1016307E+000	1,000000000000000E+000	39	1,3741206E-002	5,4814451E-004	0	1,186690316318651E-003	-4,9865089E-004	-3,9647456E-004	1,3415626E-001	3,1959616E-002	1,8269285E+000	1,5441315E-001	1,9920366E-002	8,1543201E-001	6,1962560E-006	1,0126631E-005	5,1347433E-006	1,0414347E-005	1,6100211E-006	5,9256076E-006	4,1099113E-008	6,2839206E-007	5,7264305E-008	5,3900999E-007	9,4685952E-008	1,2640859E-007	3,9385136E-002	6,3299728E-003	3,9890569E-002	9,1304865E+000	7,1016299E+003	4,4186398E+004	4,4753445E+004	-8,0869514E+001	0,0000000E+000	0,0000000E+000	0,0000000E+000	8,0869514E+001	0,0000000E+000	0,0000000E+000	0,0000000E+000	-8,0869514E+001	0,0000000E+000	0,0000000E+000	0,0000000E+000	-9,1304865E+000	0,0000000E+000	0,0000000E+000	0,0000000E+000	9,1304865E+000	6,2220073E+000	9,1304865E+000	4,787963370572789E-006
8,9003143E+001	2,5625210E+001	3,3621442E+000	2,5844833E+001	-7,4747705E+000	3,450701326565468E+001	3,2459102E+000	1,4537105E-002	5,3186133E+002	9,0008526E+000	1,000000000000000E+000	39	1,3733697E-002	5,3139043E-004	0	1,192295975722670E-003	-6,0165196E-004	-5,6833500E-004	1,5364963E-001	5,9614822E-002	1,8113497E+000	1,4686723E-001	8,2650287E-003	8,2707083E-001	5,4474408E-006	1,0744330E-005	3,3845208E-006	1,3664218E-005	6,8393815E-006	5,4054130E-006	1,1307401E-007	5,7023630E-007	4,6823210E-008	4,9796671E-007	1,2590431E-007	5,5300571E-008	3,8363654E-002	5,0334861E-003	3,8692452E-002	7,4747705E+000	9,0008516E+003	6,8601680E+004	6,9189633E+004	-8,2525230E+001	0,0000000E+000	0,0000000E+000	0,0000000E+000	8,2525230E+001	0,0000000E+000	0,0000000E+000	0,0000000E+000	-8,2525230E+001	0,0000000E+000	0,0000000E+000	0,0000000E+000	-7,4747705E+000	0,0000000E+000	0,0000000E+000	0,0000000E+000	7,4747705E+000	7,6216865E+000	7,4747705E+000	2,784865860646236E-006
5,5839867E+001	2,6416386E+001	2,9618073E+000	2,6581905E+001	-6,3972902E+000	3,594373242725851E+001	3,2459445E+000	1,5119314E-002	9,6231879E+002	1,1947041E+001	1,000000000000000E+000	39	1,3732715E-002	5,1661889E-004	0	1,198709225290248E-003	-4,2998357E-004	-5,3396280E-004	1,6668278E-001	7,3069490E-002	1,8239470E+000	1,5476708E-001	1,6679823E-002	8,4823823E-001	7,4706254E-006	1,4118267E-005	5,7158923E-006	1,3758897E-005	2,9984976E-006	3,7652624E-006	1,4043262E-007	6,3524720E-007	8,4363833E-008	4,3812145E-007	7,1763495E-008	6,7210131E-008	3,7385326E-002	4,1916459E-003	3,7619576E-002	6,3972902E+000	1,1947046E+004	1,0655576E+005	1,0722342E+005	-8,3602707E+001	0,0000000E+000	0,0000000E+000	0,0000000E+000	8,3602707E+001	0,0000000E+000	0,0000000E+000	0,0000000E+000	-8,3602707E+001	0,0000000E+000	0,0000000E+000	0,0000000E+000	-6,3972902E+000	0,0000000E+000	0,0000000E+000	0,0000000E+000	6,3972902E+000	8,9190092E+000	6,3972902E+000	2,946779163185559E-006
3,5011173E+001	2,7181810E+001	2,6457181E+000	2,7310266E+001	-5,5593233E+000	3,739468332284014E+001	3,2459407E+000	1,4892735E-002	1,7181848E+003	1,6125202E+001	1,000000000000000E+000	39	1,3734757E-002	5,0291553E-004	0	1,204953133592043E-003	-5,3298433E-004	-4,6521865E-004	1,6528197E-001	5,2236035E-002	1,8331889E+000	1,5596579E-001	2,1415608E-002	8,7324303E-001	6,6173984E-006	1,1552612E-005	3,9339529E-006	1,6348007E-005	4,5733345E-006	5,0997432E-006	2,7149034E-007	5,9029327E-007	9,1827417E-008	4,0044708E-007	8,7575245E-008	1,1063145E-007	3,6444038E-002	3,5472491E-003	3,6616266E-002	5,5593233E+000	1,6125210E+004	1,6566850E+005	1,6645142E+005	-8,4440674E+001	0,0000000E+000	0,0000000E+000	0,0000000E+000	8,4440674E+001	0,0000000E+000	0,0000000E+000	0,0000000E+000	-8,4440674E+001	0,0000000E+000	0,0000000E+000	0,0000000E+000	-5,5593233E+000	0,0000000E+000	0,0000000E+000	0,0000000E+000	5,5593233E+000	1,0273888E+001	5,5593233E+000	3,536306138981517E-006
2,1960661E+001	2,7886293E+001	2,4087315E+000	2,7990129E+001	-4,9367785E+000	3,883289915113710E+001	3,2459261E+000	1,4217468E-002	3,0087520E+003	2,2281956E+001	1,000000000000000E+000	39	1,3729338E-002	4,9050641E-004	0	1,210726291017562E-003	-5,2313073E-005	-6,0270686E-004	1,3559870E-001	5,1333509E-002	1,8120432E+000	1,4519894E-001	2,6578231E-002	9,0658236E-001	3,3240769E-006	1,0153687E-005	3,1432928E-006	1,3642902E-005	4,1257422E-006	2,8953777E-006	2,6807851E-007	5,0525438E-007	1,0245564E-007	3,8424807E-007	1,3114607E-007	3,6667558E-008	3,5594340E-002	3,0745289E-003	3,5726879E-002	4,9367785E+000	2,2281941E+004	2,5796198E+005	2,5892252E+005	-8,5063225E+001	0,0000000E+000	0,0000000E+000	0,0000000E+000	8,5063225E+001	0,0000000E+000	0,0000000E+000	0,0000000E+000	-8,5063225E+001	0,0000000E+000	0,0000000E+000	0,0000000E+000	-4,9367785E+000	0,0000000E+000	0,0000000E+000	0,0000000E+000	4,9367785E+000	1,1577170E+001	4,9367785E+000	4,002557974279756E-006
1,3786777E+001	2,8544462E+001	2,1903694E+000	2,8628378E+001	-4,3880129E+000	4,027734473973396E+001	3,2459385E+000	1,4334581E-002	5,2703569E+003	3,0851852E+001	1,000000000000000E+000	39	1,3731882E-002	4,7965979E-004	0	1,216192063102235E-003	-6,7031919E-004	-6,0270686E-004	1,2506203E-001	5,6624491E-002	1,2995805E+000	1,5036671E-001	2,5604807E-002	6,6988975E-001	4,9411669E-006	1,0891671E-005	3,3803469E-006	1,0729417E-005	3,7948691E-006	2,6595394E-006	2,9421389E-007	5,4037406E-007	6,5059055E-008	3,6183161E-007	6,3843345E-008	3,4818878E-008	3,4827985E-002	2,6725379E-003	3,4930374E-002	4,3880129E+000	3,0851875E+004	4,0205528E+005	4,0323725E+005	-8,5611984E+001	0,0000000E+000	0,0000000E+000	0,0000000E+000	8,5611984E+001	0,0000000E+000	0,0000000E+000	0,0000000E+000	-8,5611984E+001	0,0000000E+000	0,0000000E+000	0,0000000E+000	-4,3880129E+000	0,0000000E+000	0,0000000E+000	0,0000000E+000	4,3880129E+000	1,3031803E+001	4,3880129E+000	3,512267371000993E-006
8,6421518E+000	2,9136818E+001	2,0432696E+000	2,9208374E+001	-4,0113983E+000	4,175121784969815E+001	3,2459204E+000	1,4093175E-002	9,0130664E+003	4,4107166E+001	1,000000000000000E+000	39	1,3730953E-002	4,7010329E-004	0	1,218323838959264E-003	-6,0165196E-004	-5,3396280E-004	1,1356124E-001	4,3311555E-002	1,2771964E+000	1,5506032E-001	3,3244256E-002	6,7772520E-001	2,4631204E-006	1,1619550E-005	3,2135788E-006	8,1181279E-006	2,9014197E-006	2,2691893E-006	3,5726939E-007	5,3658391E-007	4,4728822E-008	3,2761514E-007	5,4427467E-008	4,2577863E-008	3,4152880E-002	2,3950296E-003	3,4236755E-002	4,0113983E+000	4,4107172E+004	6,2896381E+005	6,3050844E+005	-8,5988602E+001	0,0000000E+000	0,0000000E+000	0,0000000E+000	8,5988602E+001	0,0000000E+000	0,0000000E+000	0,0000000E+000	-8,5988602E+001	0,0000000E+000	0,0000000E+000	0,0000000E+000	-4,0113983E+000	0,0000000E+000	0,0000000E+000	0,0000000E+000	4,0113983E+000	1,4259899E+001	4,0113983E+000	4,970134079114105E-007
5,4197016E+000	2,9700758E+001	1,9557930E+000	2,9765083E+001	-3,7674842E+000	4,366892271416145E+001	3,2459326E+000	1,4087563E-002	1,5014879E+004	6,4826630E+001	1,000000000000000E+000	39	1,3733117E-002	4,6138346E-004	0	1,233145319472875E-003	-6,0165196E-004	-3,6210232E-004	1,2717496E-001	3,1246070E-002	1,0851327E+000	1,6852157E-001	7,1573280E-002	5,2158535E-001	2,9611783E-006	1,1995276E-005	4,2615261E-006	1,0011213E-005	3,9768461E-006	3,6753729E-006	5,1818785E-007	4,7869327E-007	4,8107648E-008	3,0642880E-007	4,7244992E-008	5,9818795E-008	3,3523805E-002	2,2075404E-003	3,3596411E-002	3,7674842E+000	6,4826672E+004	9,8446000E+005	9,8659213E+005	-8,6232513E+001	0,0000000E+000	0,0000000E+000	0,0000000E+000	8,6232513E+001	0,0000000E+000	0,0000000E+000	0,0000000E+000	-8,6232513E+001	0,0000000E+000	0,0000000E+000	0,0000000E+000	-3,7674842E+000	0,0000000E+000	0,0000000E+000	0,0000000E+000	3,7674842E+000	1,5186044E+001	3,7674842E+000	1,147599473721073E-005
3,4004376E+000	3,0251606E+001	1,9505063E+000	3,0314421E+001	-3,6891034E+000	4,634915796146379E+001	3,2459366E+000	1,4400983E-002	2,3995951E+004	9,9342285E+001	1,000000000000000E+000	39	1,3733581E-002	4,5303788E-004	0	1,241299210098876E-003	-5,6731811E-004	-4,6521865E-004	1,5276450E-001	2,9329436E-002	8,2554108E-001	1,7817663E-001	5,8293883E-002	3,8347763E-001	4,4254266E-006	1,5834463E-005	2,2527483E-006	1,1526528E-005	3,2430062E-006	4,2771871E-006	6,2177503E-007	3,5250503E-007	1,0412304E-007	3,3109569E-007	8,7554241E-008	9,8157571E-008	3,2919247E-002	2,1225056E-003	3,2987602E-002	3,6891034E+000	9,9342250E+004	1,5407608E+006	1,5439600E+006	-8,6310898E+001	0,0000000E+000	0,0000000E+000	0,0000000E+000	8,6310898E+001	0,0000000E+000	0,0000000E+000	0,0000000E+000	-8,6310898E+001	0,0000000E+000	0,0000000E+000	0,0000000E+000	-3,6891034E+000	0,0000000E+000	0,0000000E+000	0,0000000E+000	3,6891034E+000	1,5509617E+001	3,6891034E+000	7,450862268661628E-006
2,1345615E+000	3,0836241E+001	2,0469837E+000	3,0904108E+001	-3,7978592E+000	5,028612569512916E+001	3,2459383E+000	1,4565661E-002	3,6424789E+004	1,5980612E+002	1,000000000000000E+000	39	1,3729830E-002	4,4427201E-004	0	1,246047513063292E-003	-4,9865089E-004	-6,0270686E-004	1,1920760E-001	2,1912260E-002	6,4270324E-001	1,5748747E-001	8,3460331E-002	3,0595723E-001	1,7131814E-006	1,0644136E-005	2,3956836E-006	1,1261826E-005	1,5456857E-006	3,6579729E-006	5,2711749E-007	3,0755592E-007	8,9470653E-008	3,1872455E-007	7,0829799E-008	3,9479904E-008	3,2287098E-002	2,1432950E-003	3,2358158E-002	3,7978592E+000	1,5980611E+005	2,4073568E+006	2,4126550E+006	-8,6202141E+001	0,0000000E+000	0,0000000E+000	0,0000000E+000	8,6202141E+001	0,0000000E+000	0,0000000E+000	0,0000000E+000	-8,6202141E+001	0,0000000E+000	0,0000000E+000	0,0000000E+000	-3,7978592E+000	0,0000000E+000	0,0000000E+000	0,0000000E+000	3,7978592E+000	1,5064234E+001	3,7978592E+000	-7,692524266468027E-006
1,3384447E+000	3,1484230E+001	2,2073627E+000	3,1561514E+001	-4,0104504E+000	5,780066253207769E+001	3,2459352E+000	1,2365387E-002	5,3869875E+004	2,6349823E+002	1,000000000000000E+000	40	1,3695247E-002	4,3392240E-004	0	1,273165313344080E-003	-4,9865089E-004	-3,9647456E-004	1,2758869E-001	4,2283878E-002	5,1855165E-001	1,9000962E-001	4,3426726E-002	1,5324336E-001	4,0157465E-006	1,2528375E-005	1,2050691E-006	1,0885685E-005	2,7435551E-006	1,8565725E-006	6,9186956E-007	2,4947028E-007	6,9465756E-008	3,5757665E-007	2,4616536E-008	6,3910399E-008	3,1606574E-002	2,2159398E-003	3,1684157E-002	4,0104504E+000	2,6349838E+005	3,7583493E+006	3,7675750E+006	-8,5989548E+001	0,0000000E+000	0,0000000E+000	0,0000000E+000	8,5989548E+001	0,0000000E+000	0,0000000E+000	0,0000000E+000	-8,5989548E+001	0,0000000E+000	0,0000000E+000	0,0000000E+000	-4,0104504E+000	0,0000000E+000	0,0000000E+000	0,0000000E+000	4,0104504E+000	1,4263279E+001	4,0104504E+000	-1,634648730745479E-006
8,3950907E-001	3,2138729E+001	2,4141064E+000	3,2229271E+001	-4,2957158E+000	6,701757568979519E+001	3,2459199E+000	1,1980171E-002	7,8530492E+004	4,4060574E+002	1,000000000000000E+000	40	1,3695434E-002	4,2493775E-004	0	1,317042458368100E-003	-4,9865089E-004	-3,2773011E-004	1,3528055E-001	3,3410504E-002	4,0500301E-001	1,9055051E-001	1,2315039E-001	1,4465137E-001	2,1211597E-006	1,2171893E-005	1,9398879E-006	1,3246587E-005	2,3556952E-006	2,3230564E-006	5,9647618E-007	2,9640461E-007	1,2925307E-007	4,0744763E-007	5,4264799E-008	7,5490043E-008	3,0940531E-002	2,3241036E-003	3,1027695E-002	4,2957158E+000	4,4060575E+005	5,8657355E+006	5,8822605E+006	-8,5704285E+001	0,0000000E+000	0,0000000E+000	0,0000000E+000	8,5704285E+001	0,0000000E+000	0,0000000E+000	0,0000000E+000	-8,5704285E+001	0,0000000E+000	0,0000000E+000	0,0000000E+000	-4,2957158E+000	0,0000000E+000	0,0000000E+000	0,0000000E+000	4,2957158E+000	1,3312888E+001	4,2957158E+000	-5,649605104862416E-007
5,2644908E-001	3,2754803E+001	2,6678712E+000	3,2863274E+001	-4,6564488E+000	8,140211373302736E+001	3,2459235E+000	1,0737562E-002	1,1331800E+005	7,4680457E+002	1,000000000000000E+000	40	1,3693659E-002	4,1668580E-004	0	1,353340801716743E-003	-4,6431704E-004	-3,9647456E-004	1,2924819E-001	4,9620416E-002	3,2350150E-001	2,9236704E-001	1,2782046E-001	1,4754874E-001	1,8248993E-006	1,2102650E-005	1,2146642E-006	1,2485218E-005	1,6515307E-006	1,5457597E-006	1,0316227E-006	5,2367915E-007	1,5204036E-007	3,2479167E-007	5,2399052E-008	2,5118963E-008	3,0328669E-002	2,4702630E-003	3,0429104E-002	4,6564488E+000	7,4680450E+005	9,1688980E+006	9,1992610E+006	-8,5343552E+001	0,0000000E+000	0,0000000E+000	0,0000000E+000	8,5343552E+001	0,0000000E+000	0,0000000E+000	0,0000000E+000	-8,5343552E+001	0,0000000E+000	0,0000000E+000	0,0000000E+000	-4,6564488E+000	0,0000000E+000	0,0000000E+000	0,0000000E+000	4,6564488E+000	1,2277505E+001	4,6564488E+000	4,582497035883720E-005
3,3019856E-001	3,3397533E+001	2,9886861E+000	3,3530994E+001	-5,1136765E+000	1,040792789167899E+002	3,2459285E+000	1,0656587E-002	1,6127413E+005	1,2812456E+003	1,000000000000000E+000	40	1,3700277E-002	4,0858545E-004	0	1,472999184883345E-003	-4,6431704E-004	-1,9024189E-004	1,2980436E-001	8,5654236E-002	2,5975657E-001	2,9366568E-001	2,2796431E-001	1,3665743E-001	5,2764890E-006	1,1464687E-005	1,3948153E-006	1,1979550E-005	2,6892515E-006	1,3473026E-006	7,8286519E-007	7,6536793E-007	2,1732917E-007	3,9286562E-007	6,1231823E-008	9,7152160E-008	2,9704453E-002	2,6581988E-003	2,9823154E-002	5,1136765E+000	1,2812460E+006	1,4317477E+007	1,4374691E+007	-8,4886322E+001	0,0000000E+000	0,0000000E+000	0,0000000E+000	8,4886322E+001	0,0000000E+000	0,0000000E+000	0,0000000E+000	-8,4886322E+001	0,0000000E+000	0,0000000E+000	0,0000000E+000	-5,1136765E+000	0,0000000E+000	0,0000000E+000	0,0000000E+000	5,1136765E+000	1,1174654E+001	5,1136765E+000	4,452344589149135E-005
2,0727515E-001	3,4025215E+001	3,4361010E+000	3,4198277E+001	-5,7665730E+000	1,399684151547553E+002	3,2458944E+000	9,0798987E-003	2,2346372E+005	2,2559548E+003	1,000000000000000E+000	40	1,3701012E-002	4,0063460E-004	0	1,447544759967358E-003	-5,3298433E-004	-1,9024189E-004	1,2804452E-001	1,2144786E-001	2,2371644E-001	3,5949901E-001	1,2806511E-001	1,2593618E-001	4,7359335E-006	1,1662378E-005	1,6085686E-006	1,1327609E-005	1,2934003E-006	1,8122532E-006	8,4014437E-007	1,1263945E-006	1,4403790E-007	2,2743450E-007	7,1486774E-008	1,0871268E-007	2,9093264E-002	2,9380384E-003	2,9241240E-002	5,7665730E+000	2,2559540E+006	2,2339082E+007	2,2452704E+007	-8,4233429E+001	0,0000000E+000	0,0000000E+000	0,0000000E+000	8,4233429E+001	0,0000000E+000	0,0000000E+000	0,0000000E+000	-8,4233429E+001	0,0000000E+000	0,0000000E+000	0,0000000E+000	-5,7665730E+000	0,0000000E+000	0,0000000E+000	0,0000000E+000	5,7665730E+000	9,9022741E+000	5,7665730E+000	-1,828907058096956E-005
1,3006553E-001	3,4877483E+001	4,0685406E+000	3,5113983E+001	-6,6536160E+000	1,969151701529336E+002	3,2458992E+000	7,0637814E-003	3,0075944E+005	4,0377217E+003	1,000000000000000E+000	40	1,3700820E-002	3,9018132E-004	0	1,588786668887329E-003	-5,3298433E-004	-4,6521865E-004	1,2206963E-001	7,5733766E-002	1,8441035E-001	4,5168239E-001	1,8298781E-001	1,5172721E-001	4,5863285E-006	9,7875909E-006	1,2915605E-006	1,2172823E-005	1,3780749E-006	1,6928996E-006	6,8232151E-007	1,5906592E-006	1,7811655E-007	1,6984882E-007	1,0614697E-007	1,0122799E-007	2,8286874E-002	3,2997304E-003	2,8478684E-002	6,6536160E+000	4,0377225E+006	3,4613288E+007	3,4847996E+007	-8,3346382E+001	0,0000000E+000	0,0000000E+000	0,0000000E+000	8,3346382E+001	0,0000000E+000	0,0000000E+000	0,0000000E+000	-8,3346382E+001	0,0000000E+000	0,0000000E+000	0,0000000E+000	-6,6536160E+000	0,0000000E+000	0,0000000E+000	0,0000000E+000	6,6536160E+000	8,5724802E+000	6,6536160E+000	1,126287459381468E-004
8,1555545E-002	3,6001617E+001	4,8738427E+000	3,6330025E+001	-7,7097416E+000	2,874905128283717E+002	3,2459140E+000	6,6355113E-003	4,0040100E+005	7,2062075E+003	1,000000000000000E+000	40	1,3700915E-002	3,7712374E-004	0	2,007440085039764E-003	-4,6431704E-004	-3,9647456E-004	1,3777204E-001	5,9811451E-002	1,6177069E-001	5,5838883E-001	1,3504069E-001	1,4889161E-001	3,8426806E-006	1,3449600E-005	1,5322697E-006	1,2313808E-005	8,0596311E-007	2,1069618E-006	5,2068089E-007	1,9811096E-006	1,3870138E-007	4,1350816E-007	1,0004815E-007	6,9615368E-008	2,7276622E-002	3,6926665E-003	2,7525442E-002	7,7097416E+000	7,2062050E+006	5,3230092E+007	5,3715660E+007	-8,2290260E+001	0,0000000E+000	0,0000000E+000	0,0000000E+000	8,2290260E+001	0,0000000E+000	0,0000000E+000	0,0000000E+000	-8,2290260E+001	0,0000000E+000	0,0000000E+000	0,0000000E+000	-7,7097416E+000	0,0000000E+000	0,0000000E+000	0,0000000E+000	7,7097416E+000	7,3867006E+000	7,7097416E+000	2,208464703204404E-004
5,1141009E-002	3,7450916E+001	6,0111160E+000	3,7930260E+001	-9,1185713E+000	4,316781251969223E+002	3,2458851E+000	5,2360985E-003	5,1772094E+005	1,3002724E+004	1,000000000000000E+000	40	1,3701979E-002	3,6124137E-004	0	2,196334755059914E-003	-1,2098034E-004	-5,2753672E-005	1,4090745E-001	1,0688308E-001	1,6060030E-001	7,5435835E-001	2,4096441E-001	1,8995351E-001	8,5450256E-006	1,1446782E-005	3,3822635E-006	1,2036894E-005	1,2606814E-006	8,6306494E-007	5,8296280E-007	2,5587660E-006	1,9348442E-007	5,7102028E-007	8,4136531E-008	9,0778322E-008	2,6030999E-002	4,1781445E-003	2,6364176E-002	9,1185713E+000	1,3002718E+007	8,1010560E+007	8,2047432E+007	-8,0881432E+001	0,0000000E+000	0,0000000E+000	0,0000000E+000	8,0881432E+001	0,0000000E+000	0,0000000E+000	0,0000000E+000	-8,0881432E+001	0,0000000E+000	0,0000000E+000	0,0000000E+000	-9,1185713E+000	0,0000000E+000	0,0000000E+000	0,0000000E+000	9,1185713E+000	6,2302766E+000	9,1185713E+000	2,374152383677157E-005
3,2105520E-002	3,9179253E+001	7,3091612E+000	3,9855209E+001	-1,0567448E+001	6,611968970318267E+002	3,2458992E+000	3,7958084E-003	6,7822356E+005	2,2810656E+004	1,000000000000000E+000	40	1,3705216E-002	3,4387514E-004	0	1,944693448435328E-003	-6,3598540E-004	-3,6210232E-004	1,3206540E-001	4,9891979E-002	1,5316302E-001	8,8296854E-001	1,8005514E-001	1,9540299E-001	3,6672905E-006	1,1301614E-005	3,0514823E-006	1,2216168E-005	1,9407007E-006	4,3446034E-006	3,7004770E-007	2,8581985E-006	7,6759896E-008	8,8786339E-007	1,1882722E-007	3,1515975E-007	2,4665276E-002	4,6014781E-003	2,5090823E-002	1,0567448E+001	2,2810648E+007	1,2227182E+008	1,2438137E+008	-7,9432556E+001	0,0000000E+000	0,0000000E+000	0,0000000E+000	7,9432556E+001	0,0000000E+000	0,0000000E+000	0,0000000E+000	-7,9432556E+001	0,0000000E+000	0,0000000E+000	0,0000000E+000	-1,0567448E+001	0,0000000E+000	0,0000000E+000	0,0000000E+000	1,0567448E+001	5,3602939E+000	1,0567448E+001	-1,502718443045870E-004
2,0124838E-002	4,2280506E+001	9,1575251E+000	4,3260853E+001	-1,2220915E+001	1,026934185363381E+003	3,2459152E+000	1,5257702E-003	8,6359406E+005	3,8696859E+004	1,000000000000000E+000	40	1,3704113E-002	3,1677861E-004	0	2,144374886584145E-003	-3,6131596E-004	-4,9959053E-004	1,3240427E-001	4,7042403E-002	1,4590503E-001	1,0937706E+000	2,9353806E-001	2,0178035E-001	4,0914269E-006	1,2101516E-005	3,6049044E-006	1,0848931E-005	1,5232542E-006	3,8053452E-006	5,2124807E-007	3,2615542E-006	2,9972323E-008	9,8116436E-007	3,3981511E-008	3,2173273E-007	2,2591757E-002	4,8931437E-003	2,3115586E-002	1,2220915E+001	3,8696868E+007	1,7866430E+008	1,8280694E+008	-7,7779083E+001	0,0000000E+000	0,0000000E+000	0,0000000E+000	7,7779083E+001	0,0000000E+000	0,0000000E+000	0,0000000E+000	-7,7779083E+001	0,0000000E+000	0,0000000E+000	0,0000000E+000	-1,2220915E+001	0,0000000E+000	0,0000000E+000	0,0000000E+000	1,2220915E+001	4,6170235E+000	1,2220915E+001	2,192637087055028E-004
1,2632385E-002	4,4580791E+001	1,1144503E+001	4,5952660E+001	-1,4035402E+001	1,609663686188281E+003	3,2459316E+000	1,5967545E-003	1,1305091E+006	6,6492727E+004	1,000000000000000E+000	40	1,3708130E-002	2,9830981E-004	0	3,519741235061782E-003	-6,7031919E-004	-4,6521865E-004	1,1904129E-001	3,8073130E-002	1,3334921E-001	1,1977600E+000	1,7482743E-001	1,8376985E-001	4,0820864E-006	1,0966652E-005	1,2612957E-006	1,0683045E-005	2,8435097E-006	1,4570222E-006	4,2346170E-007	3,3696197E-006	1,3185762E-007	1,0440283E-006	4,5585981E-008	3,3427290E-007	2,1111859E-002	5,2776351E-003	2,1761525E-002	1,4035402E+001	6,6492728E+007	2,6598754E+008	2,7417267E+008	-7,5964600E+001	0,0000000E+000	0,0000000E+000	0,0000000E+000	7,5964600E+001	0,0000000E+000	0,0000000E+000	0,0000000E+000	-7,5964600E+001	0,0000000E+000	0,0000000E+000	0,0000000E+000	-1,4035402E+001	0,0000000E+000	0,0000000E+000	0,0000000E+000	1,4035402E+001	4,0002494E+000	1,4035402E+001	8,226010034690714E-004
1,0003746E-002	4,5859280E+001	1,2298091E+001	4,7479645E+001	-1,5011811E+001	2,020066802081376E+003	3,2459166E+000	1,3871591E-003	1,2936590E+006	8,6792117E+004	1,000000000000000E+000	40	1,3708360E-002	2,8872077E-004	0	4,275237679904676E-003	-6,7031919E-004	-3,6210232E-004	1,3530755E-001	5,3249910E-002	1,4456925E-001	1,2574502E+000	2,9106915E-001	2,7661392E-001	4,4078079E-006	1,1467125E-005	1,9375964E-006	1,2549312E-005	3,7202465E-006	1,6498367E-006	3,0638117E-007	3,4590773E-006	1,4153146E-007	9,5831092E-007	1,3373041E-007	2,8786755E-007	2,0342873E-002	5,4553514E-003	2,1061657E-002	1,5011811E+001	8,6792104E+007	3,2364570E+008	3,3508118E+008	-7,4988190E+001	0,0000000E+000	0,0000000E+000	0,0000000E+000	7,4988190E+001	0,0000000E+000	0,0000000E+000	0,0000000E+000	-7,4988190E+001	0,0000000E+000	0,0000000E+000	0,0000000E+000	-1,5011811E+001	0,0000000E+000	0,0000000E+000	0,0000000E+000	1,5011811E+001	3,7289755E+000	1,5011811E+001	7,554964448428948E-004