File: datas/input.txt
freq/Hz	Re(Z)/Ohm	-Im(Z)/Ohm
5,0000185E+006	5,8414941E+002	6,5603514E+000
4,8860230E+006	5,8281818E+002	6,5953002E+000
4,7746435E+006	5,8188641E+002	7,4671226E+000
4,6658070E+006	5,8265887E+002	8,7685661E+000
4,5594565E+006	5,8627106E+002	1,0422172E+001
4,4555190E+006	5,8782043E+002	1,2211744E+001
4,3539565E+006	5,8618561E+002	1,2743255E+001
4,2547040E+006	5,8523718E+002	1,2576676E+001
4,1577253E+006	5,8502344E+002	1,3639871E+001
4,0629640E+006	5,8782697E+002	1,2161570E+001
3,9703365E+006	5,8945483E+002	1,2976506E+001
3,8798248E+006	5,8878094E+002	1,2907811E+001
3,7913915E+006	5,9008472E+002	1,2570732E+001
3,7049623E+006	5,9164447E+002	1,1463017E+001
3,6205093E+006	5,9229297E+002	1,1092332E+001
3,5379770E+006	5,9247400E+002	9,8067513E+000
3,4573283E+006	5,9286456E+002	9,2249241E+000
3,3785258E+006	5,9354303E+002	8,7701654E+000
3,3015050E+006	5,9330011E+002	8,7571402E+000
3,2262470E+006	5,9292731E+002	7,6120391E+000
3,1527055E+006	5,9266479E+002	7,3860903E+000
3,0808435E+006	5,9246576E+002	7,6287260E+000
3,0106145E+006	5,9232629E+002	7,5117478E+000
2,9419908E+006	5,9124310E+002	8,0980158E+000
2,8749258E+006	5,9100500E+002	9,1943359E+000
2,8093918E+006	5,9142224E+002	8,0083456E+000
2,7453515E+006	5,9146588E+002	8,1613607E+000
2,6827680E+006	5,9133203E+002	8,3700695E+000
2,6216133E+006	5,9087476E+002	8,6600780E+000
2,5618598E+006	5,9126862E+002	1,0357897E+001
2,5034610E+006	5,9114740E+002	9,2808208E+000
2,4463980E+006	5,9109760E+002	9,3719463E+000
2,3906250E+006	5,9103064E+002	9,7311382E+000
2,3361323E+006	5,9211212E+002	9,3220568E+000
2,2828830E+006	5,9171735E+002	1,0925050E+001
2,2308400E+006	5,9123535E+002	1,0954357E+001
2,1799938E+006	5,9098529E+002	1,0410392E+001
2,1302980E+006	5,9059741E+002	1,1276879E+001
2,0817436E+006	5,9171039E+002	1,1908953E+001
2,0342841E+006	5,9152246E+002	1,2418725E+001
1,9879101E+006	5,9127631E+002	1,2191381E+001
1,9426031E+006	5,9049170E+002	1,2541949E+001
1,8983169E+006	5,9093420E+002	1,2826325E+001
1,8550419E+006	5,9106396E+002	1,3229208E+001
1,8127598E+006	5,9072723E+002	1,3792288E+001
1,7714611E+006	5,9018848E+002	1,3461392E+001
1,7310626E+006	5,9025397E+002	1,3984299E+001
1,6916011E+006	5,9054663E+002	1,4747746E+001
1,6530396E+006	5,9123358E+002	1,4683984E+001
1,6153596E+006	5,9085107E+002	1,5333724E+001
1,5785333E+006	5,9164783E+002	1,6196138E+001
1,5425513E+006	5,9021869E+002	1,5738269E+001
1,5073950E+006	5,9068750E+002	1,6178183E+001
1,4730274E+006	5,9160101E+002	1,6624548E+001
1,4394485E+006	5,9104279E+002	1,6755219E+001
1,4066398E+006	5,9066022E+002	1,7287935E+001
1,3745731E+006	5,9047699E+002	1,7836157E+001
1,3432396E+006	5,9109515E+002	1,8074917E+001
1,3126206E+006	5,9167944E+002	1,8468830E+001
1,2827068E+006	5,9119446E+002	1,8508543E+001
1,2534609E+006	5,9103131E+002	1,9020824E+001
1,2248924E+006	5,9071954E+002	1,9540131E+001
1,1969734E+006	5,9133618E+002	2,0291302E+001
1,1696853E+006	5,9179163E+002	2,0340168E+001
1,1430189E+006	5,9133575E+002	2,0733215E+001
1,1169649E+006	5,9082782E+002	2,1494680E+001
1,0915046E+006	5,9114813E+002	2,1482471E+001
1,0666196E+006	5,9171234E+002	2,1983612E+001
1,0423100E+006	5,9170593E+002	2,2204666E+001
1,0185478E+006	5,9130597E+002	2,3131529E+001
9,9533294E+005	5,9112659E+002	2,3590425E+001
9,7264700E+005	5,9153986E+002	2,4282139E+001
9,5047138E+005	5,9197455E+002	2,4767950E+001
9,2880606E+005	5,9193561E+002	2,5286072E+001
9,0763250E+005	5,9164429E+002	2,6050116E+001
8,8694144E+005	5,9171979E+002	2,6772821E+001
8,6672356E+005	5,9189990E+002	2,7091063E+001
8,4696963E+005	5,9222119E+002	2,7465025E+001
8,2766106E+005	5,9247998E+002	2,8254728E+001
8,0879788E+005	5,9207019E+002	2,8659349E+001
7,9036150E+005	5,9191748E+002	2,9338381E+001
7,7234263E+005	5,9217755E+002	2,9717030E+001
7,5474131E+005	5,9301831E+002	3,0418324E+001
7,3753900E+005	5,9275140E+002	3,1212873E+001
7,2072631E+005	5,9261725E+002	3,1916325E+001
7,0429406E+005	5,9250922E+002	3,2576969E+001
6,8824225E+005	5,9287128E+002	3,3236656E+001
6,7255231E+005	5,9316382E+002	3,3752628E+001
6,5722425E+005	5,9289319E+002	3,4472687E+001
6,4223944E+005	5,9297144E+002	3,5519661E+001
6,2759800E+005	5,9296362E+002	3,6279633E+001
6,1329050E+005	5,9335034E+002	3,6986858E+001
5,9931713E+005	5,9365802E+002	3,7679653E+001
5,8564988E+005	5,9342578E+002	3,8693283E+001
5,7229813E+005	5,9328796E+002	3,9636734E+001
5,5925250E+005	5,9363629E+002	4,0487076E+001
5,4650388E+005	5,9397748E+002	4,1133041E+001
5,3405213E+005	5,9418066E+002	4,1734310E+001
5,2187872E+005	5,9428699E+002	4,3090050E+001
5,0998366E+005	5,9412274E+002	4,3928291E+001
4,9835772E+005	5,9416467E+002	4,4848446E+001
4,8699153E+005	5,9463965E+002	4,5648602E+001
4,7589444E+005	5,9467096E+002	4,6748772E+001
4,6504788E+005	5,9473608E+002	4,8006485E+001
4,5444253E+005	5,9497229E+002	4,9041702E+001
4,4408775E+005	5,9521735E+002	5,0141380E+001
4,3396491E+005	5,9582849E+002	5,0811382E+001
4,2407400E+005	5,9596741E+002	5,1865513E+001
4,1440581E+005	5,9603638E+002	5,3349804E+001
4,0496028E+005	5,9621265E+002	5,4422775E+001
3,9572819E+005	5,9641125E+002	5,5312233E+001
3,8670947E+005	5,9690033E+002	5,6366150E+001
3,7789491E+005	5,9723358E+002	5,7868282E+001
3,6927516E+005	5,9733215E+002	5,9175098E+001
3,6085956E+005	5,9714563E+002	6,0432987E+001
3,5263881E+005	5,9787427E+002	6,1655579E+001
3,4459434E+005	5,9851221E+002	6,2629044E+001
3,3674472E+005	5,9840845E+002	6,4309685E+001
3,2906213E+005	5,9850317E+002	6,5716629E+001
3,2156509E+005	5,9869379E+002	6,7048790E+001
3,1423506E+005	5,9904382E+002	6,8376762E+001
3,0707206E+005	5,9955634E+002	6,9615044E+001
3,0006681E+005	5,9969440E+002	7,1207962E+001
2,9322853E+005	5,9984546E+002	7,3122375E+001
2,8654803E+005	6,0030310E+002	7,4883133E+001
2,8001597E+005	6,0085669E+002	7,6073181E+001
2,7363234E+005	6,0144275E+002	7,7653397E+001
2,6739719E+005	6,0150531E+002	7,9423843E+001
2,6130122E+005	6,0170160E+002	8,0964043E+001
2,5536297E+005	6,0185632E+002	8,3009407E+001
2,4952680E+005	6,0242792E+002	8,4529228E+001
2,4383906E+005	6,0302545E+002	8,6177292E+001
2,3828125E+005	6,0311896E+002	8,8103607E+001
2,3284405E+005	6,0351746E+002	9,0017601E+001
2,2753675E+005	6,0403882E+002	9,1931030E+001
2,2235006E+005	6,0474976E+002	9,3855370E+001
2,1728400E+005	6,0512842E+002	9,6047127E+001
2,1232928E+005	6,0570557E+002	9,8172234E+001
2,0748591E+005	6,0592670E+002	1,0015568E+002
2,0276314E+005	6,0676880E+002	1,0233451E+002
1,9813316E+005	6,0713177E+002	1,0423508E+002
1,9362381E+005	6,0754901E+002	1,0672300E+002
1,8920723E+005	6,0823322E+002	1,0928852E+002
1,8489275E+005	6,0877637E+002	1,1146785E+002
1,8068030E+005	6,0948712E+002	1,1383376E+002
1,7656064E+005	6,1019049E+002	1,1604267E+002
1,7253377E+005	6,1096198E+002	1,1866555E+002
1,6859969E+005	6,1144830E+002	1,2135699E+002
1,6475839E+005	6,1224896E+002	1,2380707E+002
1,6100059E+005	6,1311810E+002	1,2642570E+002
1,5733559E+005	6,1385999E+002	1,2925975E+002
1,5374480E+005	6,1473578E+002	1,3218492E+002
1,5024681E+005	6,1549304E+002	1,3504370E+002
1,4682305E+005	6,1651385E+002	1,3783324E+002
1,4347350E+005	6,1741986E+002	1,4083160E+002
1,4019819E+005	6,1818036E+002	1,4368663E+002
1,3700639E+005	6,1926416E+002	1,4686348E+002
1,3387953E+005	6,2029114E+002	1,5012938E+002
1,3082690E+005	6,2136792E+002	1,5343974E+002
1,2784850E+005	6,2244440E+002	1,5654124E+002
1,2493505E+005	6,2387341E+002	1,5966980E+002
1,2208655E+005	6,2488989E+002	1,6318494E+002
1,1930299E+005	6,2616174E+002	1,6657211E+002
1,1658440E+005	6,2755353E+002	1,7020695E+002
1,1393075E+005	6,2903748E+002	1,7377800E+002
1,1133277E+005	6,3049231E+002	1,7714268E+002
1,0879046E+005	6,3187665E+002	1,8106299E+002
1,0631309E+005	6,3367596E+002	1,8489696E+002
1,0389141E+005	6,3517523E+002	1,8860196E+002
1,0151610E+005	6,3682196E+002	1,9275880E+002
9,9205766E+004	6,3876508E+002	1,9689569E+002
9,6941805E+004	6,4049408E+002	2,0111728E+002
9,4733523E+004	6,4257910E+002	2,0497514E+002
9,2571633E+004	6,4427246E+002	2,0894374E+002
9,0465414E+004	6,4641406E+002	2,1348590E+002
8,8405578E+004	6,4850183E+002	2,1783247E+002
8,6392148E+004	6,5100427E+002	2,2227176E+002
8,4415820E+004	6,5334979E+002	2,2706177E+002
8,2495172E+004	6,5557855E+002	2,3159830E+002
8,0611641E+004	6,5829614E+002	2,3599557E+002
7,8774500E+004	6,6077197E+002	2,4085507E+002
7,6983742E+004	6,6323999E+002	2,4540627E+002
7,5230109E+004	6,6647278E+002	2,5045874E+002
7,3513586E+004	6,6935834E+002	2,5539111E+002
7,1834180E+004	6,7244525E+002	2,5999982E+002
7,0201156E+004	6,7564740E+002	2,6531549E+002
6,8595977E+004	6,7919128E+002	2,7046719E+002
6,7037188E+004	6,8235541E+002	2,7556821E+002
6,5506234E+004	6,8582019E+002	2,8085818E+002
6,4012395E+004	6,8986407E+002	2,8604211E+002
6,2555672E+004	6,9347717E+002	2,9149670E+002
6,1126785E+004	6,9737256E+002	2,9680359E+002
5,9735008E+004	7,0137268E+002	3,0192444E+002
5,8371066E+004	7,0592816E+002	3,0761655E+002
5,7044238E+004	7,1027112E+002	3,1303055E+002
5,5745250E+004	7,1472229E+002	3,1866339E+002
5,4492652E+004	7,1941132E+002	3,2409155E+002
5,3230777E+004	7,2430884E+002	3,2971213E+002
5,2015289E+004	7,2958228E+002	3,3541959E+002
5,0827645E+004	7,3465088E+002	3,4096524E+002
4,9667828E+004	7,4015442E+002	3,4663736E+002
4,8535855E+004	7,4567773E+002	3,5218738E+002
4,7431707E+004	7,5142480E+002	3,5749713E+002
4,6355402E+004	7,5755676E+002	3,6348590E+002
4,5297652E+004	7,6367389E+002	3,6881390E+002
4,4258461E+004	7,7011749E+002	3,7454715E+002
4,3256387E+004	7,7702734E+002	3,8007773E+002
4,2263582E+004	7,8338593E+002	3,8579083E+002
4,1307895E+004	7,9026648E+002	3,9142996E+002
4,0361492E+004	7,9749774E+002	3,9664175E+002
3,9442918E+004	8,0487976E+002	4,0168076E+002
3,8542902E+004	8,1253845E+002	4,0756757E+002
3,7661449E+004	8,1996436E+002	4,1272803E+002
3,6807820E+004	8,2798627E+002	4,1775552E+002
3,5963484E+004	8,3619153E+002	4,2283716E+002
3,5146973E+004	8,4435272E+002	4,2798730E+002
3,4349016E+004	8,5307959E+002	4,3265524E+002
3,3560352E+004	8,6194232E+002	4,3752722E+002
3,2799512E+004	8,7051874E+002	4,4216956E+002
3,2047949E+004	8,7947675E+002	4,4658972E+002
3,1324230E+004	8,8868738E+002	4,5114484E+002
3,0609787E+004	8,9840802E+002	4,5545923E+002
2,9904619E+004	9,0779407E+002	4,5943881E+002
2,9227287E+004	9,1750427E+002	4,6309445E+002
2,8559230E+004	9,2774841E+002	4,6732480E+002
2,7909740E+004	9,3760278E+002	4,7079016E+002
2,7269520E+004	9,4774371E+002	4,7427365E+002
2,6647865E+004	9,5819934E+002	4,7726123E+002
2,6044756E+004	9,6881158E+002	4,8009299E+002
2,5450938E+004	9,7929626E+002	4,8288712E+002
2,4866387E+004	9,9064307E+002	4,8534171E+002
2,4300404E+004	1,0009982E+003	4,8754031E+002
2,3771525E+004	1,0114230E+003	4,8950449E+002
2,3205541E+004	1,0232781E+003	4,9199139E+002
2,2676662E+004	1,0349288E+003	4,9348404E+002
2,2166342E+004	1,0452122E+003	4,9470996E+002
2,1656029E+004	1,0568376E+003	4,9540424E+002
2,1164268E+004	1,0682275E+003	4,9658847E+002
2,0681783E+004	1,0794032E+003	4,9705777E+002
2,0208582E+004	1,0903500E+003	4,9778366E+002
1,9744656E+004	1,1021572E+003	4,9759961E+002
1,9299291E+004	1,1135529E+003	4,9727368E+002
1,8853918E+004	1,1251129E+003	4,9679449E+002
1,8427111E+004	1,1352852E+003	4,9602063E+002
1,8009572E+004	1,1470800E+003	4,9535666E+002
1,7601318E+004	1,1576028E+003	4,9452106E+002
1,7193064E+004	1,1695432E+003	4,9232059E+002
1,6803369E+004	1,1802731E+003	4,9120786E+002
1,6422949E+004	1,1905841E+003	4,8914111E+002
1,6051813E+004	1,2016416E+003	4,8729507E+002
1,5680671E+004	1,2127988E+003	4,8476093E+002
1,5328087E+004	1,2227605E+003	4,8206778E+002
1,4975503E+004	1,2334996E+003	4,7974734E+002
1,4632203E+004	1,2443896E+003	4,7635779E+002
1,4298171E+004	1,2544321E+003	4,7293204E+002
1,3973430E+004	1,2647148E+003	4,6946219E+002
1,3657957E+004	1,2740709E+003	4,6591074E+002
1,3342484E+004	1,2840460E+003	4,6194894E+002
1,3036296E+004	1,2932439E+003	4,5768649E+002
1,2739383E+004	1,3034623E+003	4,5392892E+002
1,2451753E+004	1,3128280E+003	4,4950711E+002
1,2164116E+004	1,3213512E+003	4,4541742E+002
1,1895038E+004	1,3300438E+003	4,4060284E+002
1,1616685E+004	1,3386558E+003	4,3635620E+002
1,1356891E+004	1,3473051E+003	4,3122119E+002
1,1097089E+004	1,3556588E+003	4,2729333E+002
1,0846570E+004	1,3635675E+003	4,2191348E+002
1,0596052E+004	1,3715601E+003	4,1752243E+002
1,0354810E+004	1,3790652E+003	4,1094760E+002
1,0122851E+004	1,3863999E+003	4,0586676E+002
9,8908838E+003	1,3943350E+003	4,0170459E+002
9,6589248E+003	1,4019525E+003	3,9630380E+002
9,4393418E+003	1,4084799E+003	3,9093271E+002
9,2313213E+003	1,4151411E+003	3,8594891E+002
9,0150986E+003	1,4217522E+003	3,7982755E+002
8,8072861E+003	1,4279939E+003	3,7453241E+002
8,6088408E+003	1,4340212E+003	3,6951819E+002
8,4103125E+003	1,4409742E+003	3,6363898E+002
8,2207324E+003	1,4463535E+003	3,5854858E+002
8,0314727E+003	1,4521320E+003	3,5333359E+002
7,8507217E+003	1,4564084E+003	3,4759152E+002
7,6705889E+003	1,4625208E+003	3,4219254E+002
7,4985400E+003	1,4674059E+003	3,3654868E+002
7,3273403E+003	1,4719792E+003	3,3125699E+002
7,1573926E+003	1,4771338E+003	3,2545480E+002
6,9951489E+003	1,4816411E+003	3,2089035E+002
6,8401025E+003	1,4854629E+003	3,1565918E+002
6,6806304E+003	1,4896509E+003	3,0924551E+002
6,5284297E+003	1,4935898E+003	3,0455869E+002
6,3779277E+003	1,4980509E+003	2,9946991E+002
6,2342139E+003	1,5018213E+003	2,9490115E+002
6,0922056E+003	1,5056133E+003	2,8915451E+002
5,9521050E+003	1,5092059E+003	2,8443271E+002
5,8182998E+003	1,5129398E+003	2,7982938E+002
5,6863501E+003	1,5158644E+003	2,7517307E+002
5,5563970E+003	1,5195134E+003	2,7006818E+002
5,4285752E+003	1,5220552E+003	2,6545425E+002
5,3065049E+003	1,5248087E+003	2,6094492E+002
5,1831006E+003	1,5277260E+003	2,5681601E+002
5,0666182E+003	1,5309325E+003	2,5183519E+002
4,9515815E+003	1,5329292E+003	2,4756906E+002
4,8384517E+003	1,5359718E+003	2,4303874E+002
4,7284888E+003	1,5381415E+003	2,3953781E+002
4,6185254E+003	1,5410607E+003	2,3414616E+002
4,5135542E+003	1,5420020E+003	2,3089828E+002
4,4114141E+003	1,5441752E+003	2,2685056E+002
4,3113828E+003	1,5469761E+003	2,2253679E+002
4,2136533E+003	1,5485896E+003	2,1862785E+002
4,1163193E+003	1,5498531E+003	2,1504778E+002
4,0237158E+003	1,5518364E+003	2,1143185E+002
3,9312617E+003	1,5532145E+003	2,0745877E+002
3,8512349E+003	1,5555930E+003	2,0502399E+002
3,7537961E+003	1,5563361E+003	2,0058543E+002
3,6688223E+003	1,5586652E+003	1,9803351E+002
3,5838560E+003	1,5603640E+003	1,9360928E+002
3,5038813E+003	1,5612527E+003	1,9109532E+002
3,4239070E+003	1,5625161E+003	1,8770937E+002
3,3460706E+003	1,5637404E+003	1,8426784E+002
3,2689570E+003	1,5652529E+003	1,8175363E+002
3,1939746E+003	1,5665247E+003	1,7862122E+002
3,1209961E+003	1,5679076E+003	1,7633115E+002
3,0509756E+003	1,5689451E+003	1,7275000E+002
2,9809548E+003	1,5692180E+003	1,7063187E+002
2,9122009E+003	1,5708247E+003	1,6797862E+002
2,8459131E+003	1,5718929E+003	1,6571481E+002
2,7808918E+003	1,5725396E+003	1,6321841E+002
2,7191267E+003	1,5736638E+003	1,6095456E+002
2,6558489E+003	1,5739277E+003	1,5809125E+002
2,5958269E+003	1,5751923E+003	1,5557225E+002
2,5374368E+003	1,5764756E+003	1,5416286E+002
2,4792031E+003	1,5764973E+003	1,5155859E+002
2,4223252E+003	1,5777034E+003	1,5001483E+002
2,3672729E+003	1,5779027E+003	1,4714319E+002
2,3127795E+003	1,5788398E+003	1,4578560E+002
2,2607222E+003	1,5786791E+003	1,4393564E+002
2,2092908E+003	1,5795554E+003	1,4184686E+002
2,1579265E+003	1,5807393E+003	1,4112321E+002
2,1093264E+003	1,5816273E+003	1,3851678E+002
2,0606592E+003	1,5821700E+003	1,3738979E+002
2,0143539E+003	1,5818948E+003	1,3630981E+002
1,9681082E+003	1,5827972E+003	1,3418927E+002
1,9231514E+003	1,5830381E+003	1,3320041E+002
1,8794015E+003	1,5834548E+003	1,3219376E+002
1,8367618E+003	1,5841169E+003	1,3070958E+002
1,7944276E+003	1,5848455E+003	1,2944843E+002
1,7544403E+003	1,5846943E+003	1,2853940E+002
1,7144531E+003	1,5849767E+003	1,2818948E+002
1,6744658E+003	1,5850874E+003	1,2686827E+002
1,6365721E+003	1,5860945E+003	1,2549318E+002
1,5994906E+003	1,5860946E+003	1,2473946E+002
1,5634969E+003	1,5867220E+003	1,2448072E+002
1,5274435E+003	1,5870269E+003	1,2391544E+002
1,4926121E+003	1,5873251E+003	1,2323705E+002
1,4586002E+003	1,5872413E+003	1,2224168E+002
1,4254525E+003	1,5871243E+003	1,2211841E+002
1,3927743E+003	1,5876895E+003	1,2157169E+002
1,3613104E+003	1,5886007E+003	1,2210826E+002
1,3304279E+003	1,5884768E+003	1,2146944E+002
1,2995824E+003	1,5882677E+003	1,2092148E+002
1,2704060E+003	1,5890747E+003	1,2049741E+002
1,2411923E+003	1,5891243E+003	1,1984492E+002
1,2130588E+003	1,5893777E+003	1,2042863E+002
1,1853799E+003	1,5897384E+003	1,2038244E+002
1,1581481E+003	1,5899194E+003	1,2030622E+002
1,1318103E+003	1,5893898E+003	1,2112318E+002
1,1060610E+003	1,5902996E+003	1,2092010E+002
1,0810345E+003	1,5902301E+003	1,2155745E+002
1,0560155E+003	1,5903436E+003	1,2145551E+002
1,0323152E+003	1,5910537E+003	1,2215291E+002
1,0083839E+003	1,5907991E+003	1,2219327E+002
9,8531696E+002	1,5914432E+003	1,2276320E+002
9,6284601E+002	1,5906508E+003	1,2321519E+002
9,4090399E+002	1,5912914E+003	1,2475983E+002
9,1970709E+002	1,5920278E+003	1,2515709E+002
8,9856238E+002	1,5913413E+003	1,2628666E+002
8,7803601E+002	1,5925094E+003	1,2609028E+002
8,5807593E+002	1,5921970E+003	1,2719862E+002
8,3865973E+002	1,5922487E+003	1,2843016E+002
8,1973523E+002	1,5926033E+003	1,2922884E+002
8,0076605E+002	1,5928307E+003	1,3137314E+002
7,8274310E+002	1,5934333E+003	1,3211613E+002
7,6475739E+002	1,5932928E+003	1,3285062E+002
7,4715167E+002	1,5932316E+003	1,3490567E+002
7,3023138E+002	1,5933470E+003	1,3567578E+002
7,1385504E+002	1,5946506E+003	1,3718040E+002
6,9745483E+002	1,5937891E+003	1,3862144E+002
6,8152698E+002	1,5945580E+003	1,4084418E+002
6,6606549E+002	1,5949608E+003	1,4248131E+002
6,5062494E+002	1,5942593E+003	1,4444389E+002
6,3601733E+002	1,5944568E+003	1,4635423E+002
6,2139185E+002	1,5956102E+003	1,4778291E+002
6,0713739E+002	1,5953235E+003	1,4925642E+002
5,9329120E+002	1,5961637E+003	1,5187054E+002
5,7981464E+002	1,5956614E+003	1,5448067E+002
5,6663153E+002	1,5959684E+003	1,5551631E+002
5,5375995E+002	1,5962838E+003	1,5847383E+002
5,4121240E+002	1,5978453E+003	1,6105984E+002
5,2881537E+002	1,5970912E+003	1,6286562E+002
5,1681921E+002	1,5967445E+003	1,6612184E+002
5,0483868E+002	1,5973573E+003	1,6850021E+002
4,9357861E+002	1,5981033E+003	1,7118198E+002
4,8231482E+002	1,5985010E+003	1,7407545E+002
4,7135727E+002	1,5980824E+003	1,7655972E+002
4,6044217E+002	1,5989491E+003	1,7938544E+002
4,4985638E+002	1,5992219E+003	1,8342090E+002
4,3985919E+002	1,5989924E+003	1,8672784E+002
4,2958780E+002	1,5998829E+003	1,8950021E+002
4,1986554E+002	1,6001124E+003	1,9342488E+002
4,1039362E+002	1,6006565E+003	1,9621458E+002
4,0089786E+002	1,6005345E+003	2,0066731E+002
3,9188116E+002	1,6015281E+003	2,0360750E+002
3,8291663E+002	1,6017389E+003	2,0753337E+002
3,7416220E+002	1,6027587E+003	2,1220506E+002
3,6558508E+002	1,6032740E+003	2,1562224E+002
3,5740137E+002	1,6032623E+003	2,1997318E+002
3,4921765E+002	1,6036041E+003	2,2415643E+002
3,4120084E+002	1,6048606E+003	2,2847139E+002
3,3339932E+002	1,6053752E+003	2,3264656E+002
3,2572971E+002	1,6057428E+003	2,3771463E+002
3,1847134E+002	1,6070750E+003	2,4166560E+002
3,1109528E+002	1,6082787E+003	2,4708633E+002
3,0412375E+002	1,6074510E+003	2,5196907E+002
2,9718726E+002	1,6089276E+003	2,5654688E+002
2,9027835E+002	1,6094661E+003	2,6284869E+002
2,8381943E+002	1,6098049E+003	2,6752228E+002
2,7721747E+002	1,6109489E+003	2,7367200E+002
2,7095377E+002	1,6113983E+003	2,7892160E+002
2,6474594E+002	1,6131147E+003	2,8479132E+002
2,5875790E+002	1,6142527E+003	2,9060254E+002
2,5281534E+002	1,6151499E+003	2,9634229E+002
2,4713501E+002	1,6159124E+003	3,0320551E+002
2,4146811E+002	1,6171821E+003	3,0930396E+002
2,3598149E+002	1,6188297E+003	3,1592877E+002
2,3051649E+002	1,6202423E+003	3,2281845E+002
2,2536069E+002	1,6206769E+003	3,2946994E+002
2,2021159E+002	1,6222230E+003	3,3646759E+002
2,1520630E+002	1,6237761E+003	3,4392285E+002
2,1020174E+002	1,6247501E+003	3,5061481E+002
2,0546019E+002	1,6268273E+003	3,5882919E+002
2,0070673E+002	1,6281577E+003	3,6619958E+002
1,9619316E+002	1,6304032E+003	3,7433774E+002
1,9165576E+002	1,6316957E+003	3,8230957E+002
1,8733815E+002	1,6337517E+003	3,9102777E+002
1,8306673E+002	1,6358728E+003	3,9870908E+002
1,7891228E+002	1,6374449E+003	4,0779034E+002
1,7483235E+002	1,6392047E+003	4,1716434E+002
1,7082021E+002	1,6421072E+003	4,2526071E+002
1,6697720E+002	1,6436285E+003	4,3421872E+002
1,6317218E+002	1,6468815E+003	4,4382095E+002
1,5943871E+002	1,6491373E+003	4,5370731E+002
1,5574768E+002	1,6511118E+003	4,6436963E+002
1,5219151E+002	1,6553418E+003	4,7389413E+002
1,4880971E+002	1,6574055E+003	4,8422278E+002
1,4541895E+002	1,6607755E+003	4,9376208E+002
1,4204532E+002	1,6635450E+003	5,0544705E+002
1,3880060E+002	1,6663400E+003	5,1549274E+002
1,3565123E+002	1,6710964E+003	5,2757275E+002
1,3258159E+002	1,6732919E+003	5,3871613E+002
1,2954399E+002	1,6774908E+003	5,5051788E+002
1,2657941E+002	1,6824629E+003	5,6257593E+002
1,2369379E+002	1,6852687E+003	5,7431421E+002
1,2088940E+002	1,6910842E+003	5,8657532E+002
1,1814758E+002	1,6952069E+003	5,9945282E+002
1,1540652E+002	1,6989301E+003	6,1225671E+002
1,1279807E+002	1,7038510E+003	6,2561908E+002
1,1024699E+002	1,7096638E+003	6,3905463E+002
1,0769144E+002	1,7138682E+003	6,5271735E+002
1,0523573E+002	1,7200841E+003	6,6649060E+002
1,0286048E+002	1,7248915E+003	6,8066602E+002
1,0054707E+002	1,7312679E+003	6,9524030E+002
9,8208336E+001	1,7381224E+003	7,0990985E+002
9,6014145E+001	1,7449303E+003	7,2469666E+002
9,3828888E+001	1,7520776E+003	7,3935571E+002
9,1671944E+001	1,7588802E+003	7,5488568E+002
8,9570137E+001	1,7668368E+003	7,7006201E+002
8,7507813E+001	1,7737374E+003	7,8666290E+002
8,5519997E+001	1,7818978E+003	8,0396185E+002
8,3582100E+001	1,7906316E+003	8,1918909E+002
8,1699341E+001	1,7992302E+003	8,3610406E+002
7,9821053E+001	1,8079141E+003	8,5199567E+002
7,7978523E+001	1,8180558E+003	8,7094110E+002
7,6244026E+001	1,8288870E+003	8,8736346E+002
7,4499100E+001	1,8376158E+003	9,0554364E+002
7,2786957E+001	1,8492626E+003	9,2283209E+002
7,1115044E+001	1,8623628E+003	9,4311829E+002
6,9488586E+001	1,8734673E+003	9,6051361E+002
6,7934769E+001	1,8859674E+003	9,7946289E+002
6,6380722E+001	1,8985468E+003	9,9823230E+002
6,4854698E+001	1,9118589E+003	1,0180551E+003
6,3397289E+001	1,9247968E+003	1,0364247E+003
6,1922073E+001	1,9396580E+003	1,0564384E+003
6,0522930E+001	1,9539938E+003	1,0759191E+003
5,9148296E+001	1,9694233E+003	1,0951429E+003
5,7798996E+001	1,9843944E+003	1,1151665E+003
5,6463554E+001	2,0007589E+003	1,1355631E+003
5,5194275E+001	2,0175565E+003	1,1549872E+003
5,3946972E+001	2,0355992E+003	1,1748685E+003
5,2690060E+001	2,0535176E+003	1,1957455E+003
5,1499680E+001	2,0722156E+003	1,2161099E+003
5,0338284E+001	2,0927439E+003	1,2365792E+003
4,9197079E+001	2,1114387E+003	1,2562664E+003
4,8047379E+001	2,1330286E+003	1,2770468E+003
4,6968906E+001	2,1538716E+003	1,2971536E+003
4,5895874E+001	2,1760020E+003	1,3183557E+003
4,4842140E+001	2,1989807E+003	1,3381537E+003
4,3835716E+001	2,2218071E+003	1,3581683E+003
4,2821243E+001	2,2469924E+003	1,3789639E+003
4,1862057E+001	2,2715615E+003	1,3988441E+003
4,0903168E+001	2,2973401E+003	1,4183966E+003
3,9961636E+001	2,3244490E+003	1,4383286E+003
3,9062500E+001	2,3506406E+003	1,4577415E+003
3,8156284E+001	2,3785037E+003	1,4765956E+003
3,7303864E+001	2,4058750E+003	1,4940442E+003
3,6434010E+001	2,4379819E+003	1,5137828E+003
3,5603867E+001	2,4667236E+003	1,5324027E+003
3,4810604E+001	2,4961399E+003	1,5485748E+003
3,4009666E+001	2,5279907E+003	1,5670245E+003
3,3224449E+001	2,5605986E+003	1,5839541E+003
3,2484383E+001	2,5928640E+003	1,5993691E+003
3,1736643E+001	2,6270110E+003	1,6163021E+003
3,1002014E+001	2,6616509E+003	1,6311981E+003
3,0300617E+001	2,6957249E+003	1,6458733E+003
2,9611513E+001	2,7306943E+003	1,6594644E+003
2,8935150E+001	2,7657556E+003	1,6725287E+003
2,8272047E+001	2,8030369E+003	1,6860642E+003
2,7638525E+001	2,8399971E+003	1,6979921E+003
2,7014166E+001	2,8767915E+003	1,7089296E+003
2,6393608E+001	2,9149565E+003	1,7202468E+003
2,5783852E+001	2,9541370E+003	1,7303047E+003
2,5201590E+001	2,9931482E+003	1,7392440E+003
2,4629608E+001	3,0312983E+003	1,7473199E+003
2,4068058E+001	3,0723850E+003	1,7546550E+003
2,3517460E+001	3,1118887E+003	1,7611183E+003
2,2977962E+001	3,1525044E+003	1,7666298E+003
2,2449717E+001	3,1943293E+003	1,7698492E+003
2,1945238E+001	3,2332532E+003	1,7741080E+003
2,1448210E+001	3,2744109E+003	1,7778643E+003
2,0959080E+001	3,3142119E+003	1,7796310E+003
2,0478369E+001	3,3566721E+003	1,7793656E+003
2,0006374E+001	3,3974177E+003	1,7796012E+003
1,9555689E+001	3,4378813E+003	1,7798308E+003
1,9113123E+001	3,4788210E+003	1,7766951E+003
1,8667877E+001	3,5194128E+003	1,7731335E+003
1,8253475E+001	3,5601694E+003	1,7704214E+003
1,7836765E+001	3,5985232E+003	1,7647496E+003
1,7425642E+001	3,6408638E+003	1,7607965E+003
1,7033070E+001	3,6801543E+003	1,7530297E+003
1,6634167E+001	3,7208586E+003	1,7457148E+003
1,6264767E+001	3,7603804E+003	1,7372921E+003
1,5889853E+001	3,7983076E+003	1,7273292E+003
1,5531778E+001	3,8367244E+003	1,7183180E+003
1,5169904E+001	3,8741794E+003	1,7070651E+003
1,4824494E+001	3,9123364E+003	1,6959258E+003
1,4485494E+001	3,9495212E+003	1,6837521E+003
1,4161616E+001	3,9861624E+003	1,6708257E+003
1,3835579E+001	4,0216648E+003	1,6563435E+003
1,3516471E+001	4,0571826E+003	1,6425812E+003
1,3211668E+001	4,0911067E+003	1,6277548E+003
1,2906119E+001	4,1257441E+003	1,6129938E+003
1,2614354E+001	4,1596191E+003	1,5971833E+003
1,2332275E+001	4,1918936E+003	1,5824208E+003
1,2047068E+001	4,2222212E+003	1,5652822E+003
1,1774674E+001	4,2544990E+003	1,5454025E+003
1,1505857E+001	4,2863843E+003	1,5282664E+003
1,1240989E+001	4,3152993E+003	1,5079481E+003
1,0988042E+001	4,3464814E+003	1,4918212E+003
1,0738820E+001	4,3727944E+003	1,4719330E+003
1,0493621E+001	4,3995811E+003	1,4551893E+003
1,0252595E+001	4,4274941E+003	1,4340306E+003
1,0016039E+001	4,4556377E+003	1,4123313E+003
9,7901373E+000	4,4791680E+003	1,3950669E+003
9,5682592E+000	4,5037056E+003	1,3754867E+003
9,3507023E+000	4,5265786E+003	1,3559768E+003
9,1373920E+000	4,5518281E+003	1,3342478E+003
8,9285526E+000	4,5745386E+003	1,3152944E+003
8,7290258E+000	4,5974629E+003	1,2913582E+003
8,5289030E+000	4,6180508E+003	1,2739551E+003
8,3288555E+000	4,6396992E+003	1,2509823E+003
8,1380453E+000	4,6589048E+003	1,2308712E+003
7,9557300E+000	4,6760562E+003	1,2099647E+003
7,7736378E+000	4,6976855E+003	1,1878999E+003
7,5997415E+000	4,7139214E+003	1,1711229E+003
7,4263663E+000	4,7334204E+003	1,1472856E+003
7,2539597E+000	4,7498774E+003	1,1292833E+003
7,0893764E+000	4,7644600E+003	1,1113425E+003
6,9259777E+000	4,7800762E+003	1,0899282E+003
6,7699327E+000	4,7941753E+003	1,0705398E+003
6,6151543E+000	4,8086108E+003	1,0509761E+003
6,4672976E+000	4,8242603E+003	1,0309403E+003
6,3156857E+000	4,8386694E+003	1,0117310E+003
6,1710105E+000	4,8512100E+003	9,9199768E+002
6,0351491E+000	4,8638105E+003	9,7589990E+002
5,8984532E+000	4,8768457E+003	9,5556171E+002
5,7614298E+000	4,8888286E+003	9,3691919E+002
5,6306272E+000	4,8976084E+003	9,1938104E+002
5,4998250E+000	4,9095532E+003	8,9952344E+002
5,3749604E+000	4,9191904E+003	8,8297626E+002
5,2556319E+000	4,9301387E+003	8,6502960E+002
5,1313639E+000	4,9382100E+003	8,4677820E+002
5,0176606E+000	4,9481646E+003	8,3083789E+002
4,9042702E+000	4,9574487E+003	8,1439105E+002
4,7914758E+000	4,9648228E+003	7,9766345E+002
4,6795459E+000	4,9736250E+003	7,8135620E+002
4,5740604E+000	4,9810391E+003	7,6423743E+002
4,4693947E+000	4,9895566E+003	7,5025018E+002
4,3694081E+000	4,9957720E+003	7,3456439E+002
4,2691231E+000	5,0022349E+003	7,1857391E+002
4,1733460E+000	5,0088730E+003	7,0521698E+002
4,0775018E+000	5,0159595E+003	6,8825043E+002
3,9819033E+000	5,0220483E+003	6,7468701E+002
3,8945675E+000	5,0270132E+003	6,6127985E+002
3,8035512E+000	5,0328560E+003	6,4582306E+002
3,7166998E+000	5,0374463E+003	6,3173615E+002
3,6337228E+000	5,0417134E+003	6,2003632E+002
3,5511329E+000	5,0484023E+003	6,0613416E+002
3,4683719E+000	5,0519248E+003	5,9209930E+002
3,3893735E+000	5,0583296E+003	5,7968042E+002
3,3138916E+000	5,0608584E+003	5,6841138E+002
3,2383428E+000	5,0659360E+003	5,5515735E+002
3,1629577E+000	5,0694126E+003	5,4326642E+002
3,0928328E+000	5,0729683E+003	5,3147131E+002
3,0210764E+000	5,0773330E+003	5,1867120E+002
2,9525683E+000	5,0800732E+003	5,0874805E+002
2,8839037E+000	5,0837744E+003	4,9739737E+002
2,8183610E+000	5,0863574E+003	4,8684998E+002
2,7557313E+000	5,0897729E+003	4,7588306E+002
2,6902556E+000	5,0924551E+003	4,6502081E+002
2,6291461E+000	5,0953501E+003	4,5511169E+002
2,5715902E+000	5,0983838E+003	4,4501828E+002
2,5108457E+000	5,1000176E+003	4,3478296E+002
2,4555995E+000	5,1030664E+003	4,2559854E+002
2,3975744E+000	5,1052085E+003	4,1600558E+002
2,3446903E+000	5,1072139E+003	4,0672644E+002
2,2897124E+000	5,1097930E+003	3,9768588E+002
2,2372530E+000	5,1117417E+003	3,8831662E+002
2,1871479E+000	5,1120430E+003	3,7973026E+002
2,1369011E+000	5,1142671E+003	3,7136346E+002
2,0889044E+000	5,1165732E+003	3,6352728E+002
2,0400808E+000	5,1177939E+003	3,5544913E+002
1,9955337E+000	5,1194644E+003	3,4734308E+002
1,9484982E+000	5,1212573E+003	3,3987103E+002
1,9036309E+000	5,1224956E+003	3,3245728E+002
1,8607825E+000	5,1241445E+003	3,2479239E+002
1,8189774E+000	5,1252344E+003	3,1748431E+002
1,7775893E+000	5,1265830E+003	3,1015015E+002
1,7361120E+000	5,1275532E+003	3,0392722E+002
1,6965270E+000	5,1286787E+003	2,9716855E+002
1,6594082E+000	5,1297529E+003	2,9049820E+002
1,6215221E+000	5,1305376E+003	2,8398199E+002
1,5835613E+000	5,1314863E+003	2,7784232E+002
1,5473366E+000	5,1330142E+003	2,7067047E+002
1,5122890E+000	5,1335190E+003	2,6486603E+002
1,4779643E+000	5,1343247E+003	2,5903207E+002
1,4435500E+000	5,1357012E+003	2,5241150E+002
1,4107078E+000	5,1359072E+003	2,4705962E+002
1,3783500E+000	5,1370454E+003	2,4123521E+002
1,3474450E+000	5,1375645E+003	2,3568719E+002
1,3176725E+000	5,1387422E+003	2,3083104E+002
1,2872815E+000	5,1389775E+003	2,2548064E+002
1,2582541E+000	5,1401133E+003	2,2028902E+002
1,2283772E+000	5,1406665E+003	2,1486554E+002
1,2014583E+000	5,1416206E+003	2,1055281E+002
1,1730492E+000	5,1416675E+003	2,0558160E+002
1,1461973E+000	5,1422388E+003	2,0099696E+002
1,1212007E+000	5,1427256E+003	1,9668730E+002
1,0948032E+000	5,1429219E+003	1,9190060E+002
1,0699854E+000	5,1437388E+003	1,8756424E+002
1,0456369E+000	5,1440396E+003	1,8346812E+002
1,0224432E+000	5,1443848E+003	1,7917577E+002
9,9891424E-001	5,1441235E+003	1,7561929E+002
9,7552687E-001	5,1452046E+003	1,7127919E+002
9,5402449E-001	5,1456250E+003	1,6769116E+002
9,3238801E-001	5,1457075E+003	1,6378363E+002
9,1055036E-001	5,1462695E+003	1,5950194E+002
8,8980794E-001	5,1461973E+003	1,5653009E+002
8,6921453E-001	5,1468320E+003	1,5258734E+002
8,4936619E-001	5,1471802E+003	1,4887848E+002
8,3067268E-001	5,1476533E+003	1,4589726E+002
8,1168860E-001	5,1475874E+003	1,4263306E+002
7,9270452E-001	5,1478335E+003	1,3919112E+002
7,7462941E-001	5,1483223E+003	1,3612442E+002
7,5702369E-001	5,1486616E+003	1,3314296E+002
7,3964149E-001	5,1489214E+003	1,3001320E+002
7,2337687E-001	5,1489810E+003	1,2735744E+002
7,0701540E-001	5,1488315E+003	1,2420155E+002
6,9076049E-001	5,1491880E+003	1,2142437E+002
6,7448020E-001	5,1497061E+003	1,1815704E+002
6,5961707E-001	5,1496714E+003	1,1576807E+002
6,4438283E-001	5,1497192E+003	1,1308551E+002
6,2943101E-001	5,1498081E+003	1,1092026E+002
6,1564225E-001	5,1501489E+003	1,0811143E+002
6,0142428E-001	5,1499634E+003	1,0602549E+002
5,8744997E-001	5,1503633E+003	1,0311464E+002
5,7444870E-001	5,1504131E+003	1,0140344E+002
5,6100118E-001	5,1508965E+003	9,8429848E+001
5,4801482E-001	5,1502505E+003	9,6699173E+001
5,3561628E-001	5,1513579E+003	9,4772003E+001
5,2336305E-001	5,1510757E+003	9,1927292E+001
5,1182508E-001	5,1512510E+003	8,9565948E+001
4,9976036E-001	5,1514053E+003	8,8102798E+001